sbj,runtrial,run,stimx,answer,response,rt,correct,type,trial,f1,f2,f3,c,endacc,learner
100,1,1,8,1,NA,NA,0,prototype,1,2,2,2,2,0.5,med
100,2,1,7,1,1,1912,1,rule follower,2,1,2,2,2,0.5,med
100,3,1,1,0,1,1230,0,prototype,3,1,1,1,1,0.5,med
100,4,1,1,0,1,1665,0,prototype,4,1,1,1,1,0.5,med
100,5,1,8,1,1,1133,1,prototype,5,2,2,2,2,0.5,med
100,6,1,4,1,0,1045,0,rule follower,6,2,1,2,2,0.5,med
100,7,1,5,1,1,1527,1,exception,7,1,2,1,2,0.5,med
100,8,1,8,1,1,1385,1,prototype,8,2,2,2,2,0.5,med
100,9,1,1,0,0,1681,1,prototype,9,1,1,1,1,0.5,med
100,10,1,8,1,1,717,1,prototype,10,2,2,2,2,0.5,med
100,11,1,6,0,1,612,0,exception,11,2,2,1,1,0.5,med
100,12,1,4,1,0,1832,0,rule follower,12,2,1,2,2,0.5,med
100,13,1,6,0,0,1220,1,exception,13,2,2,1,1,0.5,med
100,14,1,7,1,1,1732,1,rule follower,14,1,2,2,2,0.5,med
100,15,1,1,0,0,2013,1,prototype,15,1,1,1,1,0.5,med
100,16,1,8,1,1,1596,1,prototype,16,2,2,2,2,0.5,med
100,17,1,3,0,0,1500,1,rule follower,17,1,1,2,1,0.5,med
100,18,1,5,1,1,1448,1,exception,18,1,2,1,2,0.5,med
100,19,1,3,0,0,1045,1,rule follower,19,1,1,2,1,0.5,med
100,20,1,1,0,0,1533,1,prototype,20,1,1,1,1,0.5,med
100,21,1,1,0,0,1628,1,prototype,21,1,1,1,1,0.5,med
100,22,1,8,1,0,2463,0,prototype,22,2,2,2,2,0.5,med
100,23,1,2,0,0,1491,1,rule follower,23,2,1,1,1,0.5,med
100,24,1,2,0,0,1579,1,rule follower,24,2,1,1,1,0.5,med
100,1,2,1,0,0,1216,1,prototype,25,1,1,1,1,0.5,med
100,2,2,8,1,1,894,1,prototype,26,2,2,2,2,0.5,med
100,3,2,8,1,1,972,1,prototype,27,2,2,2,2,0.5,med
100,4,2,1,0,0,1483,1,prototype,28,1,1,1,1,0.5,med
100,5,2,5,1,1,769,1,exception,29,1,2,1,2,0.5,med
100,6,2,6,0,1,1013,0,exception,30,2,2,1,1,0.5,med
100,7,2,3,0,0,1071,1,rule follower,31,1,1,2,1,0.5,med
100,8,2,7,1,1,1085,1,rule follower,32,1,2,2,2,0.5,med
100,9,2,4,1,0,864,0,rule follower,33,2,1,2,2,0.5,med
100,10,2,7,1,NA,NA,0,rule follower,34,1,2,2,2,0.5,med
100,11,2,8,1,1,860,1,prototype,35,2,2,2,2,0.5,med
100,12,2,2,0,0,1325,1,rule follower,36,2,1,1,1,0.5,med
100,13,2,4,1,0,2489,0,rule follower,37,2,1,2,2,0.5,med
100,14,2,3,0,0,1942,1,rule follower,38,1,1,2,1,0.5,med
100,15,2,8,1,1,1710,1,prototype,39,2,2,2,2,0.5,med
100,16,2,1,0,0,1201,1,prototype,40,1,1,1,1,0.5,med
100,17,2,5,1,1,1892,1,exception,41,1,2,1,2,0.5,med
100,18,2,8,1,0,2049,0,prototype,42,2,2,2,2,0.5,med
100,19,2,1,0,0,808,1,prototype,43,1,1,1,1,0.5,med
100,20,2,6,0,1,721,0,exception,44,2,2,1,1,0.5,med
100,21,2,2,0,0,1816,1,rule follower,45,2,1,1,1,0.5,med
100,22,2,8,1,1,2894,1,prototype,46,2,2,2,2,0.5,med
100,23,2,1,0,0,567,1,prototype,47,1,1,1,1,0.5,med
100,24,2,1,0,0,1227,1,prototype,48,1,1,1,1,0.5,med
100,1,3,8,1,1,1040,1,prototype,49,2,2,2,2,0.5,med
100,2,3,3,0,0,1775,1,rule follower,50,1,1,2,1,0.5,med
100,3,3,1,0,0,1956,1,prototype,51,1,1,1,1,0.5,med
100,4,3,8,1,1,828,1,prototype,52,2,2,2,2,0.5,med
100,5,3,5,1,1,1856,1,exception,53,1,2,1,2,0.5,med
100,6,3,4,1,0,1287,0,rule follower,54,2,1,2,2,0.5,med
100,7,3,1,0,0,1175,1,prototype,55,1,1,1,1,0.5,med
100,8,3,6,0,1,1232,0,exception,56,2,2,1,1,0.5,med
100,9,3,7,1,1,1174,1,rule follower,57,1,2,2,2,0.5,med
100,10,3,8,1,1,1206,1,prototype,58,2,2,2,2,0.5,med
100,11,3,1,0,0,1683,1,prototype,59,1,1,1,1,0.5,med
100,12,3,5,1,1,788,1,exception,60,1,2,1,2,0.5,med
100,13,3,2,0,0,1243,1,rule follower,61,2,1,1,1,0.5,med
100,14,3,3,0,0,1660,1,rule follower,62,1,1,2,1,0.5,med
100,15,3,8,1,1,2118,1,prototype,63,2,2,2,2,0.5,med
100,16,3,1,0,0,1186,1,prototype,64,1,1,1,1,0.5,med
100,17,3,2,0,0,1590,1,rule follower,65,2,1,1,1,0.5,med
100,18,3,1,0,0,1483,1,prototype,66,1,1,1,1,0.5,med
100,19,3,6,0,1,1712,0,exception,67,2,2,1,1,0.5,med
100,20,3,8,1,1,1847,1,prototype,68,2,2,2,2,0.5,med
100,21,3,8,1,0,1781,0,prototype,69,2,2,2,2,0.5,med
100,22,3,1,0,0,1194,1,prototype,70,1,1,1,1,0.5,med
100,23,3,7,1,1,1251,1,rule follower,71,1,2,2,2,0.5,med
100,24,3,4,1,0,1762,0,rule follower,72,2,1,2,2,0.5,med
100,1,4,8,1,1,1306,1,prototype,73,2,2,2,2,0.5,med
100,2,4,2,0,0,2345,1,rule follower,74,2,1,1,1,0.5,med
100,3,4,4,1,0,1319,0,rule follower,75,2,1,2,2,0.5,med
100,4,4,6,0,1,1680,0,exception,76,2,2,1,1,0.5,med
100,5,4,8,1,1,1687,1,prototype,77,2,2,2,2,0.5,med
100,6,4,1,0,0,789,1,prototype,78,1,1,1,1,0.5,med
100,7,4,5,1,1,825,1,exception,79,1,2,1,2,0.5,med
100,8,4,1,0,0,866,1,prototype,80,1,1,1,1,0.5,med
100,9,4,1,0,0,675,1,prototype,81,1,1,1,1,0.5,med
100,10,4,5,1,1,835,1,exception,82,1,2,1,2,0.5,med
100,11,4,3,0,0,1244,1,rule follower,83,1,1,2,1,0.5,med
100,12,4,6,0,1,1582,0,exception,84,2,2,1,1,0.5,med
100,13,4,8,1,1,1081,1,prototype,85,2,2,2,2,0.5,med
100,14,4,1,0,0,867,1,prototype,86,1,1,1,1,0.5,med
100,15,4,8,1,1,801,1,prototype,87,2,2,2,2,0.5,med
100,16,4,1,0,0,1277,1,prototype,88,1,1,1,1,0.5,med
100,17,4,3,0,0,1619,1,rule follower,89,1,1,2,1,0.5,med
100,18,4,8,1,1,791,1,prototype,90,2,2,2,2,0.5,med
100,19,4,2,0,0,840,1,rule follower,91,2,1,1,1,0.5,med
100,20,4,4,1,0,677,0,rule follower,92,2,1,2,2,0.5,med
100,21,4,8,1,1,1599,1,prototype,93,2,2,2,2,0.5,med
100,22,4,7,1,0,1054,0,rule follower,94,1,2,2,2,0.5,med
100,23,4,1,0,0,842,1,prototype,95,1,1,1,1,0.5,med
100,24,4,7,1,1,711,1,rule follower,96,1,2,2,2,0.5,med
100,1,5,8,1,1,803,1,prototype,97,2,2,2,2,0.5,med
100,2,5,3,0,0,1080,1,rule follower,98,1,1,2,1,0.5,med
100,3,5,5,1,1,634,1,exception,99,1,2,1,2,0.5,med
100,4,5,1,0,0,650,1,prototype,100,1,1,1,1,0.5,med
100,5,5,1,0,0,820,1,prototype,101,1,1,1,1,0.5,med
100,6,5,4,1,0,1195,0,rule follower,102,2,1,2,2,0.5,med
100,7,5,1,0,0,790,1,prototype,103,1,1,1,1,0.5,med
100,8,5,1,0,0,645,1,prototype,104,1,1,1,1,0.5,med
100,9,5,6,0,1,732,0,exception,105,2,2,1,1,0.5,med
100,10,5,5,1,1,738,1,exception,106,1,2,1,2,0.5,med
100,11,5,6,0,1,858,0,exception,107,2,2,1,1,0.5,med
100,12,5,3,0,0,761,1,rule follower,108,1,1,2,1,0.5,med
100,13,5,2,0,0,682,1,rule follower,109,2,1,1,1,0.5,med
100,14,5,2,0,0,972,1,rule follower,110,2,1,1,1,0.5,med
100,15,5,1,0,0,765,1,prototype,111,1,1,1,1,0.5,med
100,16,5,8,1,1,645,1,prototype,112,2,2,2,2,0.5,med
100,17,5,8,1,1,673,1,prototype,113,2,2,2,2,0.5,med
100,18,5,7,1,1,724,1,rule follower,114,1,2,2,2,0.5,med
100,19,5,8,1,1,647,1,prototype,115,2,2,2,2,0.5,med
100,20,5,8,1,1,792,1,prototype,116,2,2,2,2,0.5,med
100,21,5,8,1,1,535,1,prototype,117,2,2,2,2,0.5,med
100,22,5,1,0,0,702,1,prototype,118,1,1,1,1,0.5,med
100,23,5,4,1,0,658,0,rule follower,119,2,1,2,2,0.5,med
100,24,5,7,1,1,660,1,rule follower,120,1,2,2,2,0.5,med
100,1,6,1,0,0,1206,1,prototype,121,1,1,1,1,0.5,med
100,2,6,1,0,0,1059,1,prototype,122,1,1,1,1,0.5,med
100,3,6,5,1,1,1062,1,exception,123,1,2,1,2,0.5,med
100,4,6,6,0,1,1048,0,exception,124,2,2,1,1,0.5,med
100,5,6,7,1,1,845,1,rule follower,125,1,2,2,2,0.5,med
100,6,6,6,0,1,1078,0,exception,126,2,2,1,1,0.5,med
100,7,6,1,0,0,901,1,prototype,127,1,1,1,1,0.5,med
100,8,6,8,1,1,570,1,prototype,128,2,2,2,2,0.5,med
100,9,6,2,0,0,588,1,rule follower,129,2,1,1,1,0.5,med
100,10,6,3,0,0,720,1,rule follower,130,1,1,2,1,0.5,med
100,11,6,5,1,1,542,1,exception,131,1,2,1,2,0.5,med
100,12,6,1,0,0,486,1,prototype,132,1,1,1,1,0.5,med
100,13,6,8,1,1,1782,1,prototype,133,2,2,2,2,0.5,med
100,14,6,4,1,0,582,0,rule follower,134,2,1,2,2,0.5,med
100,15,6,8,1,1,675,1,prototype,135,2,2,2,2,0.5,med
100,16,6,4,1,0,557,0,rule follower,136,2,1,2,2,0.5,med
100,17,6,1,0,0,516,1,prototype,137,1,1,1,1,0.5,med
100,18,6,8,1,1,913,1,prototype,138,2,2,2,2,0.5,med
100,19,6,3,0,0,519,1,rule follower,139,1,1,2,1,0.5,med
100,20,6,1,0,0,990,1,prototype,140,1,1,1,1,0.5,med
100,21,6,7,1,1,579,1,rule follower,141,1,2,2,2,0.5,med
100,22,6,2,0,0,839,1,rule follower,142,2,1,1,1,0.5,med
100,23,6,8,1,1,685,1,prototype,143,2,2,2,2,0.5,med
100,24,6,8,1,1,636,1,prototype,144,2,2,2,2,0.5,med
101,1,1,3,0,NA,NA,0,rule follower,1,2,1,1,1,0.375,low
101,2,1,3,0,1,826,0,rule follower,2,2,1,1,1,0.375,low
101,3,1,4,1,0,706,0,rule follower,3,2,2,1,2,0.375,low
101,4,1,1,0,1,1503,0,prototype,4,1,1,1,1,0.375,low
101,5,1,8,1,1,1053,1,prototype,5,2,2,2,2,0.375,low
101,6,1,5,1,0,914,0,exception,6,1,1,2,2,0.375,low
101,7,1,1,0,1,2055,0,prototype,7,1,1,1,1,0.375,low
101,8,1,2,0,1,2490,0,rule follower,8,1,2,1,1,0.375,low
101,9,1,6,0,0,875,1,exception,9,1,2,2,1,0.375,low
101,10,1,8,1,1,1531,1,prototype,10,2,2,2,2,0.375,low
101,11,1,1,0,0,1122,1,prototype,11,1,1,1,1,0.375,low
101,12,1,2,0,0,1304,1,rule follower,12,1,2,1,1,0.375,low
101,13,1,7,1,1,1339,1,rule follower,13,2,1,2,2,0.375,low
101,14,1,8,1,1,1197,1,prototype,14,2,2,2,2,0.375,low
101,15,1,4,1,1,1113,1,rule follower,15,2,2,1,2,0.375,low
101,16,1,8,1,1,837,1,prototype,16,2,2,2,2,0.375,low
101,17,1,7,1,1,387,1,rule follower,17,2,1,2,2,0.375,low
101,18,1,8,1,1,427,1,prototype,18,2,2,2,2,0.375,low
101,19,1,5,1,0,482,0,exception,19,1,1,2,2,0.375,low
101,20,1,1,0,1,1250,0,prototype,20,1,1,1,1,0.375,low
101,21,1,1,0,0,1429,1,prototype,21,1,1,1,1,0.375,low
101,22,1,1,0,0,812,1,prototype,22,1,1,1,1,0.375,low
101,23,1,8,1,1,714,1,prototype,23,2,2,2,2,0.375,low
101,24,1,6,0,0,693,1,exception,24,1,2,2,1,0.375,low
101,1,2,4,1,1,618,1,rule follower,25,2,2,1,2,0.375,low
101,2,2,1,0,0,433,1,prototype,26,1,1,1,1,0.375,low
101,3,2,2,0,1,372,0,rule follower,27,1,2,1,1,0.375,low
101,4,2,7,1,1,688,1,rule follower,28,2,1,2,2,0.375,low
101,5,2,8,1,1,566,1,prototype,29,2,2,2,2,0.375,low
101,6,2,8,1,1,482,1,prototype,30,2,2,2,2,0.375,low
101,7,2,3,0,1,481,0,rule follower,31,2,1,1,1,0.375,low
101,8,2,1,0,0,682,1,prototype,32,1,1,1,1,0.375,low
101,9,2,8,1,1,459,1,prototype,33,2,2,2,2,0.375,low
101,10,2,8,1,1,548,1,prototype,34,2,2,2,2,0.375,low
101,11,2,1,0,0,633,1,prototype,35,1,1,1,1,0.375,low
101,12,2,1,0,0,670,1,prototype,36,1,1,1,1,0.375,low
101,13,2,1,0,0,468,1,prototype,37,1,1,1,1,0.375,low
101,14,2,4,1,1,675,1,rule follower,38,2,2,1,2,0.375,low
101,15,2,6,0,0,714,1,exception,39,1,2,2,1,0.375,low
101,16,2,6,0,0,593,1,exception,40,1,2,2,1,0.375,low
101,17,2,8,1,1,523,1,prototype,41,2,2,2,2,0.375,low
101,18,2,5,1,0,564,0,exception,42,1,1,2,2,0.375,low
101,19,2,1,0,1,614,0,prototype,43,1,1,1,1,0.375,low
101,20,2,3,0,1,596,0,rule follower,44,2,1,1,1,0.375,low
101,21,2,2,0,0,659,1,rule follower,45,1,2,1,1,0.375,low
101,22,2,8,1,1,886,1,prototype,46,2,2,2,2,0.375,low
101,23,2,5,1,0,791,0,exception,47,1,1,2,2,0.375,low
101,24,2,7,1,1,643,1,rule follower,48,2,1,2,2,0.375,low
101,1,3,5,1,0,854,0,exception,49,1,1,2,2,0.375,low
101,2,3,1,0,1,1254,0,prototype,50,1,1,1,1,0.375,low
101,3,3,1,0,0,1838,1,prototype,51,1,1,1,1,0.375,low
101,4,3,4,1,1,935,1,rule follower,52,2,2,1,2,0.375,low
101,5,3,2,0,0,1023,1,rule follower,53,1,2,1,1,0.375,low
101,6,3,6,0,0,747,1,exception,54,1,2,2,1,0.375,low
101,7,3,5,1,1,1659,1,exception,55,1,1,2,2,0.375,low
101,8,3,2,0,0,1358,1,rule follower,56,1,2,1,1,0.375,low
101,9,3,7,1,1,1105,1,rule follower,57,2,1,2,2,0.375,low
101,10,3,4,1,0,749,0,rule follower,58,2,2,1,2,0.375,low
101,11,3,1,0,1,1016,0,prototype,59,1,1,1,1,0.375,low
101,12,3,1,0,0,1319,1,prototype,60,1,1,1,1,0.375,low
101,13,3,6,0,1,1150,0,exception,61,1,2,2,1,0.375,low
101,14,3,8,1,0,1243,0,prototype,62,2,2,2,2,0.375,low
101,15,3,3,0,1,1097,0,rule follower,63,2,1,1,1,0.375,low
101,16,3,3,0,0,1569,1,rule follower,64,2,1,1,1,0.375,low
101,17,3,8,1,1,1663,1,prototype,65,2,2,2,2,0.375,low
101,18,3,8,1,1,1348,1,prototype,66,2,2,2,2,0.375,low
101,19,3,7,1,0,778,0,rule follower,67,2,1,2,2,0.375,low
101,20,3,1,0,0,1600,1,prototype,68,1,1,1,1,0.375,low
101,21,3,1,0,0,1192,1,prototype,69,1,1,1,1,0.375,low
101,22,3,8,1,1,656,1,prototype,70,2,2,2,2,0.375,low
101,23,3,8,1,1,925,1,prototype,71,2,2,2,2,0.375,low
101,24,3,8,1,1,702,1,prototype,72,2,2,2,2,0.375,low
101,1,4,1,0,0,806,1,prototype,73,1,1,1,1,0.375,low
101,2,4,5,1,0,844,0,exception,74,1,1,2,2,0.375,low
101,3,4,1,0,1,1569,0,prototype,75,1,1,1,1,0.375,low
101,4,4,1,0,0,1360,1,prototype,76,1,1,1,1,0.375,low
101,5,4,8,1,1,965,1,prototype,77,2,2,2,2,0.375,low
101,6,4,6,0,0,1544,1,exception,78,1,2,2,1,0.375,low
101,7,4,1,0,1,678,0,prototype,79,1,1,1,1,0.375,low
101,8,4,2,0,0,1565,1,rule follower,80,1,2,1,1,0.375,low
101,9,4,5,1,0,1347,0,exception,81,1,1,2,2,0.375,low
101,10,4,8,1,1,729,1,prototype,82,2,2,2,2,0.375,low
101,11,4,6,0,1,1627,0,exception,83,1,2,2,1,0.375,low
101,12,4,3,0,1,1027,0,rule follower,84,2,1,1,1,0.375,low
101,13,4,7,1,1,1313,1,rule follower,85,2,1,2,2,0.375,low
101,14,4,4,1,1,1100,1,rule follower,86,2,2,1,2,0.375,low
101,15,4,8,1,1,781,1,prototype,87,2,2,2,2,0.375,low
101,16,4,8,1,1,504,1,prototype,88,2,2,2,2,0.375,low
101,17,4,2,0,0,579,1,rule follower,89,1,2,1,1,0.375,low
101,18,4,3,0,1,727,0,rule follower,90,2,1,1,1,0.375,low
101,19,4,1,0,0,940,1,prototype,91,1,1,1,1,0.375,low
101,20,4,8,1,1,888,1,prototype,92,2,2,2,2,0.375,low
101,21,4,1,0,0,815,1,prototype,93,1,1,1,1,0.375,low
101,22,4,4,1,1,775,1,rule follower,94,2,2,1,2,0.375,low
101,23,4,7,1,1,707,1,rule follower,95,2,1,2,2,0.375,low
101,24,4,8,1,1,763,1,prototype,96,2,2,2,2,0.375,low
101,1,5,6,0,0,714,1,exception,97,1,2,2,1,0.375,low
101,2,5,1,0,0,474,1,prototype,98,1,1,1,1,0.375,low
101,3,5,8,1,1,712,1,prototype,99,2,2,2,2,0.375,low
101,4,5,4,1,1,750,1,rule follower,100,2,2,1,2,0.375,low
101,5,5,6,0,0,743,1,exception,101,1,2,2,1,0.375,low
101,6,5,3,0,1,605,0,rule follower,102,2,1,1,1,0.375,low
101,7,5,8,1,1,735,1,prototype,103,2,2,2,2,0.375,low
101,8,5,2,0,0,491,1,rule follower,104,1,2,1,1,0.375,low
101,9,5,7,1,0,1122,0,rule follower,105,2,1,2,2,0.375,low
101,10,5,8,1,1,1261,1,prototype,106,2,2,2,2,0.375,low
101,11,5,4,1,1,718,1,rule follower,107,2,2,1,2,0.375,low
101,12,5,2,0,0,714,1,rule follower,108,1,2,1,1,0.375,low
101,13,5,8,1,1,791,1,prototype,109,2,2,2,2,0.375,low
101,14,5,5,1,0,730,0,exception,110,1,1,2,2,0.375,low
101,15,5,1,0,0,734,1,prototype,111,1,1,1,1,0.375,low
101,16,5,3,0,1,763,0,rule follower,112,2,1,1,1,0.375,low
101,17,5,1,0,0,763,1,prototype,113,1,1,1,1,0.375,low
101,18,5,8,1,1,642,1,prototype,114,2,2,2,2,0.375,low
101,19,5,1,0,0,857,1,prototype,115,1,1,1,1,0.375,low
101,20,5,8,1,1,676,1,prototype,116,2,2,2,2,0.375,low
101,21,5,1,0,0,543,1,prototype,117,1,1,1,1,0.375,low
101,22,5,1,0,0,1279,1,prototype,118,1,1,1,1,0.375,low
101,23,5,5,1,0,521,0,exception,119,1,1,2,2,0.375,low
101,24,5,7,1,1,600,1,rule follower,120,2,1,2,2,0.375,low
101,1,6,7,1,1,686,1,rule follower,121,2,1,2,2,0.375,low
101,2,6,1,0,0,709,1,prototype,122,1,1,1,1,0.375,low
101,3,6,8,1,1,533,1,prototype,123,2,2,2,2,0.375,low
101,4,6,1,0,0,523,1,prototype,124,1,1,1,1,0.375,low
101,5,6,5,1,0,725,0,exception,125,1,1,2,2,0.375,low
101,6,6,6,0,1,637,0,exception,126,1,2,2,1,0.375,low
101,7,6,6,0,0,549,1,exception,127,1,2,2,1,0.375,low
101,8,6,3,0,1,594,0,rule follower,128,2,1,1,1,0.375,low
101,9,6,8,1,1,585,1,prototype,129,2,2,2,2,0.375,low
101,10,6,8,1,1,649,1,prototype,130,2,2,2,2,0.375,low
101,11,6,2,0,0,651,1,rule follower,131,1,2,1,1,0.375,low
101,12,6,7,1,1,515,1,rule follower,132,2,1,2,2,0.375,low
101,13,6,8,1,1,521,1,prototype,133,2,2,2,2,0.375,low
101,14,6,1,0,0,815,1,prototype,134,1,1,1,1,0.375,low
101,15,6,1,0,1,523,0,prototype,135,1,1,1,1,0.375,low
101,16,6,8,1,0,487,0,prototype,136,2,2,2,2,0.375,low
101,17,6,5,1,0,685,0,exception,137,1,1,2,2,0.375,low
101,18,6,1,0,0,664,1,prototype,138,1,1,1,1,0.375,low
101,19,6,1,0,0,2130,1,prototype,139,1,1,1,1,0.375,low
101,20,6,2,0,0,1162,1,rule follower,140,1,2,1,1,0.375,low
101,21,6,4,1,1,990,1,rule follower,141,2,2,1,2,0.375,low
101,22,6,3,0,1,620,0,rule follower,142,2,1,1,1,0.375,low
101,23,6,4,1,1,893,1,rule follower,143,2,2,1,2,0.375,low
101,24,6,8,1,1,831,1,prototype,144,2,2,2,2,0.375,low
102,1,1,2,0,NA,NA,0,rule follower,1,1,2,1,1,0.5,med
102,2,1,6,0,1,1261,0,exception,2,1,2,2,1,0.5,med
102,3,1,5,1,0,771,0,exception,3,1,1,2,2,0.5,med
102,4,1,8,1,0,941,0,prototype,4,2,2,2,2,0.5,med
102,5,1,8,1,NA,NA,0,prototype,5,2,2,2,2,0.5,med
102,6,1,6,0,0,1797,1,exception,6,1,2,2,1,0.5,med
102,7,1,5,1,1,1591,1,exception,7,1,1,2,2,0.5,med
102,8,1,4,1,0,2569,0,rule follower,8,2,2,1,2,0.5,med
102,9,1,1,0,0,1820,1,prototype,9,1,1,1,1,0.5,med
102,10,1,2,0,1,2455,0,rule follower,10,1,2,1,1,0.5,med
102,11,1,8,1,1,2172,1,prototype,11,2,2,2,2,0.5,med
102,12,1,1,0,1,1750,0,prototype,12,1,1,1,1,0.5,med
102,13,1,8,1,1,1357,1,prototype,13,2,2,2,2,0.5,med
102,14,1,1,0,0,1168,1,prototype,14,1,1,1,1,0.5,med
102,15,1,3,0,0,905,1,rule follower,15,2,1,1,1,0.5,med
102,16,1,7,1,0,1027,0,rule follower,16,2,1,2,2,0.5,med
102,17,1,7,1,1,2019,1,rule follower,17,2,1,2,2,0.5,med
102,18,1,8,1,1,1182,1,prototype,18,2,2,2,2,0.5,med
102,19,1,3,0,1,1301,0,rule follower,19,2,1,1,1,0.5,med
102,20,1,1,0,0,1569,1,prototype,20,1,1,1,1,0.5,med
102,21,1,4,1,1,922,1,rule follower,21,2,2,1,2,0.5,med
102,22,1,1,0,0,1764,1,prototype,22,1,1,1,1,0.5,med
102,23,1,8,1,1,1107,1,prototype,23,2,2,2,2,0.5,med
102,24,1,1,0,1,1813,0,prototype,24,1,1,1,1,0.5,med
102,1,2,6,0,1,1284,0,exception,25,1,2,2,1,0.5,med
102,2,2,8,1,1,1116,1,prototype,26,2,2,2,2,0.5,med
102,3,2,8,1,1,1430,1,prototype,27,2,2,2,2,0.5,med
102,4,2,4,1,1,931,1,rule follower,28,2,2,1,2,0.5,med
102,5,2,8,1,1,1021,1,prototype,29,2,2,2,2,0.5,med
102,6,2,3,0,0,1885,1,rule follower,30,2,1,1,1,0.5,med
102,7,2,8,1,1,1049,1,prototype,31,2,2,2,2,0.5,med
102,8,2,4,1,1,1044,1,rule follower,32,2,2,1,2,0.5,med
102,9,2,5,1,0,1637,0,exception,33,1,1,2,2,0.5,med
102,10,2,6,0,0,2260,1,exception,34,1,2,2,1,0.5,med
102,11,2,7,1,1,1242,1,rule follower,35,2,1,2,2,0.5,med
102,12,2,1,0,0,1307,1,prototype,36,1,1,1,1,0.5,med
102,13,2,1,0,0,1277,1,prototype,37,1,1,1,1,0.5,med
102,14,2,3,0,1,708,0,rule follower,38,2,1,1,1,0.5,med
102,15,2,1,0,0,979,1,prototype,39,1,1,1,1,0.5,med
102,16,2,2,0,1,1888,0,rule follower,40,1,2,1,1,0.5,med
102,17,2,1,0,0,1076,1,prototype,41,1,1,1,1,0.5,med
102,18,2,2,0,1,2060,0,rule follower,42,1,2,1,1,0.5,med
102,19,2,5,1,0,1280,0,exception,43,1,1,2,2,0.5,med
102,20,2,8,1,1,904,1,prototype,44,2,2,2,2,0.5,med
102,21,2,7,1,0,2032,0,rule follower,45,2,1,2,2,0.5,med
102,22,2,8,1,1,1115,1,prototype,46,2,2,2,2,0.5,med
102,23,2,1,0,0,2020,1,prototype,47,1,1,1,1,0.5,med
102,24,2,1,0,0,1020,1,prototype,48,1,1,1,1,0.5,med
102,1,3,1,0,1,2515,0,prototype,49,1,1,1,1,0.5,med
102,2,3,8,1,1,650,1,prototype,50,2,2,2,2,0.5,med
102,3,3,8,1,1,705,1,prototype,51,2,2,2,2,0.5,med
102,4,3,4,1,1,602,1,rule follower,52,2,2,1,2,0.5,med
102,5,3,6,0,0,820,1,exception,53,1,2,2,1,0.5,med
102,6,3,8,1,1,810,1,prototype,54,2,2,2,2,0.5,med
102,7,3,7,1,1,814,1,rule follower,55,2,1,2,2,0.5,med
102,8,3,5,1,0,885,0,exception,56,1,1,2,2,0.5,med
102,9,3,3,0,0,2049,1,rule follower,57,2,1,1,1,0.5,med
102,10,3,1,0,0,1087,1,prototype,58,1,1,1,1,0.5,med
102,11,3,4,1,1,849,1,rule follower,59,2,2,1,2,0.5,med
102,12,3,1,0,0,1771,1,prototype,60,1,1,1,1,0.5,med
102,13,3,6,0,1,2129,0,exception,61,1,2,2,1,0.5,med
102,14,3,1,0,0,1397,1,prototype,62,1,1,1,1,0.5,med
102,15,3,8,1,1,847,1,prototype,63,2,2,2,2,0.5,med
102,16,3,7,1,0,2454,0,rule follower,64,2,1,2,2,0.5,med
102,17,3,8,1,1,1097,1,prototype,65,2,2,2,2,0.5,med
102,18,3,3,0,1,1505,0,rule follower,66,2,1,1,1,0.5,med
102,19,3,2,0,0,1396,1,rule follower,67,1,2,1,1,0.5,med
102,20,3,2,0,1,2028,0,rule follower,68,1,2,1,1,0.5,med
102,21,3,5,1,0,1972,0,exception,69,1,1,2,2,0.5,med
102,22,3,1,0,0,1268,1,prototype,70,1,1,1,1,0.5,med
102,23,3,8,1,1,820,1,prototype,71,2,2,2,2,0.5,med
102,24,3,1,0,0,1110,1,prototype,72,1,1,1,1,0.5,med
102,1,4,8,1,1,812,1,prototype,73,2,2,2,2,0.5,med
102,2,4,8,1,1,772,1,prototype,74,2,2,2,2,0.5,med
102,3,4,8,1,1,539,1,prototype,75,2,2,2,2,0.5,med
102,4,4,1,0,0,805,1,prototype,76,1,1,1,1,0.5,med
102,5,4,3,0,1,2100,0,rule follower,77,2,1,1,1,0.5,med
102,6,4,6,0,0,943,1,exception,78,1,2,2,1,0.5,med
102,7,4,6,0,0,1021,1,exception,79,1,2,2,1,0.5,med
102,8,4,1,0,1,1927,0,prototype,80,1,1,1,1,0.5,med
102,9,4,5,1,0,1514,0,exception,81,1,1,2,2,0.5,med
102,10,4,1,0,0,2198,1,prototype,82,1,1,1,1,0.5,med
102,11,4,1,0,0,858,1,prototype,83,1,1,1,1,0.5,med
102,12,4,1,0,0,865,1,prototype,84,1,1,1,1,0.5,med
102,13,4,7,1,0,2360,0,rule follower,85,2,1,2,2,0.5,med
102,14,4,4,1,1,720,1,rule follower,86,2,2,1,2,0.5,med
102,15,4,7,1,1,1686,1,rule follower,87,2,1,2,2,0.5,med
102,16,4,5,1,0,1284,0,exception,88,1,1,2,2,0.5,med
102,17,4,8,1,1,851,1,prototype,89,2,2,2,2,0.5,med
102,18,4,8,1,1,637,1,prototype,90,2,2,2,2,0.5,med
102,19,4,4,1,1,599,1,rule follower,91,2,2,1,2,0.5,med
102,20,4,2,0,0,1909,1,rule follower,92,1,2,1,1,0.5,med
102,21,4,8,1,1,1298,1,prototype,93,2,2,2,2,0.5,med
102,22,4,1,0,0,1059,1,prototype,94,1,1,1,1,0.5,med
102,23,4,2,0,0,1412,1,rule follower,95,1,2,1,1,0.5,med
102,24,4,3,0,1,769,0,rule follower,96,2,1,1,1,0.5,med
102,1,5,1,0,0,985,1,prototype,97,1,1,1,1,0.5,med
102,2,5,8,1,1,957,1,prototype,98,2,2,2,2,0.5,med
102,3,5,1,0,0,954,1,prototype,99,1,1,1,1,0.5,med
102,4,5,2,0,0,1771,1,rule follower,100,1,2,1,1,0.5,med
102,5,5,8,1,1,787,1,prototype,101,2,2,2,2,0.5,med
102,6,5,6,0,0,1318,1,exception,102,1,2,2,1,0.5,med
102,7,5,5,1,0,1726,0,exception,103,1,1,2,2,0.5,med
102,8,5,3,0,1,1777,0,rule follower,104,2,1,1,1,0.5,med
102,9,5,5,1,0,990,0,exception,105,1,1,2,2,0.5,med
102,10,5,8,1,1,881,1,prototype,106,2,2,2,2,0.5,med
102,11,5,1,0,0,1332,1,prototype,107,1,1,1,1,0.5,med
102,12,5,1,0,1,1482,0,prototype,108,1,1,1,1,0.5,med
102,13,5,1,0,0,1411,1,prototype,109,1,1,1,1,0.5,med
102,14,5,8,1,1,788,1,prototype,110,2,2,2,2,0.5,med
102,15,5,3,0,1,1152,0,rule follower,111,2,1,1,1,0.5,med
102,16,5,8,1,1,767,1,prototype,112,2,2,2,2,0.5,med
102,17,5,8,1,1,517,1,prototype,113,2,2,2,2,0.5,med
102,18,5,4,1,1,696,1,rule follower,114,2,2,1,2,0.5,med
102,19,5,7,1,1,955,1,rule follower,115,2,1,2,2,0.5,med
102,20,5,2,0,0,2216,1,rule follower,116,1,2,1,1,0.5,med
102,21,5,4,1,1,1227,1,rule follower,117,2,2,1,2,0.5,med
102,22,5,7,1,1,1677,1,rule follower,118,2,1,2,2,0.5,med
102,23,5,6,0,0,1660,1,exception,119,1,2,2,1,0.5,med
102,24,5,1,0,0,2408,1,prototype,120,1,1,1,1,0.5,med
102,1,6,8,1,1,575,1,prototype,121,2,2,2,2,0.5,med
102,2,6,7,1,1,1366,1,rule follower,122,2,1,2,2,0.5,med
102,3,6,5,1,0,1154,0,exception,123,1,1,2,2,0.5,med
102,4,6,2,0,0,1438,1,rule follower,124,1,2,1,1,0.5,med
102,5,6,8,1,1,957,1,prototype,125,2,2,2,2,0.5,med
102,6,6,2,0,0,1115,1,rule follower,126,1,2,1,1,0.5,med
102,7,6,3,0,1,1260,0,rule follower,127,2,1,1,1,0.5,med
102,8,6,8,1,1,994,1,prototype,128,2,2,2,2,0.5,med
102,9,6,1,0,0,1572,1,prototype,129,1,1,1,1,0.5,med
102,10,6,7,1,1,2140,1,rule follower,130,2,1,2,2,0.5,med
102,11,6,6,0,0,1107,1,exception,131,1,2,2,1,0.5,med
102,12,6,3,0,0,2033,1,rule follower,132,2,1,1,1,0.5,med
102,13,6,5,1,0,896,0,exception,133,1,1,2,2,0.5,med
102,14,6,1,0,0,1520,1,prototype,134,1,1,1,1,0.5,med
102,15,6,1,0,0,1711,1,prototype,135,1,1,1,1,0.5,med
102,16,6,1,0,1,1711,0,prototype,136,1,1,1,1,0.5,med
102,17,6,4,1,1,687,1,rule follower,137,2,2,1,2,0.5,med
102,18,6,8,1,1,828,1,prototype,138,2,2,2,2,0.5,med
102,19,6,4,1,1,544,1,rule follower,139,2,2,1,2,0.5,med
102,20,6,1,0,0,1884,1,prototype,140,1,1,1,1,0.5,med
102,21,6,6,0,0,1559,1,exception,141,1,2,2,1,0.5,med
102,22,6,8,1,1,1356,1,prototype,142,2,2,2,2,0.5,med
102,23,6,8,1,1,668,1,prototype,143,2,2,2,2,0.5,med
102,24,6,1,0,0,1346,1,prototype,144,1,1,1,1,0.5,med
103,1,1,2,0,1,1369,0,rule follower,1,2,1,1,1,0,low
103,2,1,7,1,1,1313,1,rule follower,2,1,2,2,2,0,low
103,3,1,1,0,1,1014,0,prototype,3,1,1,1,1,0,low
103,4,1,8,1,0,1511,0,prototype,4,2,2,2,2,0,low
103,5,1,3,0,1,765,0,rule follower,5,1,2,1,1,0,low
103,6,1,4,1,0,1398,0,rule follower,6,2,2,1,2,0,low
103,7,1,3,0,1,1014,0,rule follower,7,1,2,1,1,0,low
103,8,1,8,1,1,1054,1,prototype,8,2,2,2,2,0,low
103,9,1,1,0,1,1183,0,prototype,9,1,1,1,1,0,low
103,10,1,5,1,0,1273,0,exception,10,1,1,2,2,0,low
103,11,1,8,1,1,1442,1,prototype,11,2,2,2,2,0,low
103,12,1,4,1,1,1056,1,rule follower,12,2,2,1,2,0,low
103,13,1,6,0,1,777,0,exception,13,2,1,2,1,0,low
103,14,1,1,0,1,791,0,prototype,14,1,1,1,1,0,low
103,15,1,2,0,1,925,0,rule follower,15,2,1,1,1,0,low
103,16,1,8,1,1,893,1,prototype,16,2,2,2,2,0,low
103,17,1,8,1,0,703,0,prototype,17,2,2,2,2,0,low
103,18,1,5,1,1,733,1,exception,18,1,1,2,2,0,low
103,19,1,7,1,1,866,1,rule follower,19,1,2,2,2,0,low
103,20,1,1,0,1,734,0,prototype,20,1,1,1,1,0,low
103,21,1,8,1,1,900,1,prototype,21,2,2,2,2,0,low
103,22,1,1,0,0,1410,1,prototype,22,1,1,1,1,0,low
103,23,1,6,0,1,756,0,exception,23,2,1,2,1,0,low
103,24,1,1,0,0,1050,1,prototype,24,1,1,1,1,0,low
103,1,2,5,1,0,1274,0,exception,25,1,1,2,2,0,low
103,2,2,2,0,1,856,0,rule follower,26,2,1,1,1,0,low
103,3,2,8,1,1,1526,1,prototype,27,2,2,2,2,0,low
103,4,2,1,0,0,896,1,prototype,28,1,1,1,1,0,low
103,5,2,6,0,1,801,0,exception,29,2,1,2,1,0,low
103,6,2,8,1,1,1024,1,prototype,30,2,2,2,2,0,low
103,7,2,4,1,1,1230,1,rule follower,31,2,2,1,2,0,low
103,8,2,8,1,1,1496,1,prototype,32,2,2,2,2,0,low
103,9,2,4,1,1,953,1,rule follower,33,2,2,1,2,0,low
103,10,2,1,0,0,659,1,prototype,34,1,1,1,1,0,low
103,11,2,6,0,1,459,0,exception,35,2,1,2,1,0,low
103,12,2,5,1,0,516,0,exception,36,1,1,2,2,0,low
103,13,2,3,0,0,855,1,rule follower,37,1,2,1,1,0,low
103,14,2,8,1,1,898,1,prototype,38,2,2,2,2,0,low
103,15,2,1,0,0,889,1,prototype,39,1,1,1,1,0,low
103,16,2,7,1,0,983,0,rule follower,40,1,2,2,2,0,low
103,17,2,2,0,1,600,0,rule follower,41,2,1,1,1,0,low
103,18,2,8,1,1,891,1,prototype,42,2,2,2,2,0,low
103,19,2,1,0,0,882,1,prototype,43,1,1,1,1,0,low
103,20,2,8,1,1,651,1,prototype,44,2,2,2,2,0,low
103,21,2,1,0,0,841,1,prototype,45,1,1,1,1,0,low
103,22,2,7,1,0,822,0,rule follower,46,1,2,2,2,0,low
103,23,2,3,0,0,906,1,rule follower,47,1,2,1,1,0,low
103,24,2,1,0,0,962,1,prototype,48,1,1,1,1,0,low
103,1,3,2,0,1,971,0,rule follower,49,2,1,1,1,0,low
103,2,3,5,1,0,584,0,exception,50,1,1,2,2,0,low
103,3,3,1,0,0,1107,1,prototype,51,1,1,1,1,0,low
103,4,3,8,1,1,796,1,prototype,52,2,2,2,2,0,low
103,5,3,1,0,0,796,1,prototype,53,1,1,1,1,0,low
103,6,3,8,1,1,860,1,prototype,54,2,2,2,2,0,low
103,7,3,8,1,1,794,1,prototype,55,2,2,2,2,0,low
103,8,3,6,0,1,583,0,exception,56,2,1,2,1,0,low
103,9,3,4,1,1,655,1,rule follower,57,2,2,1,2,0,low
103,10,3,3,0,0,988,1,rule follower,58,1,2,1,1,0,low
103,11,3,1,0,0,790,1,prototype,59,1,1,1,1,0,low
103,12,3,5,1,0,803,0,exception,60,1,1,2,2,0,low
103,13,3,8,1,1,798,1,prototype,61,2,2,2,2,0,low
103,14,3,1,0,0,808,1,prototype,62,1,1,1,1,0,low
103,15,3,4,1,1,756,1,rule follower,63,2,2,1,2,0,low
103,16,3,1,0,0,806,1,prototype,64,1,1,1,1,0,low
103,17,3,2,0,1,817,0,rule follower,65,2,1,1,1,0,low
103,18,3,7,1,0,1445,0,rule follower,66,1,2,2,2,0,low
103,19,3,6,0,1,883,0,exception,67,2,1,2,1,0,low
103,20,3,8,1,1,755,1,prototype,68,2,2,2,2,0,low
103,21,3,3,0,0,754,1,rule follower,69,1,2,1,1,0,low
103,22,3,7,1,0,593,0,rule follower,70,1,2,2,2,0,low
103,23,3,1,0,0,816,1,prototype,71,1,1,1,1,0,low
103,24,3,8,1,1,643,1,prototype,72,2,2,2,2,0,low
103,1,4,8,1,1,703,1,prototype,73,2,2,2,2,0,low
103,2,4,5,1,0,752,0,exception,74,1,1,2,2,0,low
103,3,4,1,0,0,747,1,prototype,75,1,1,1,1,0,low
103,4,4,7,1,0,1466,0,rule follower,76,1,2,2,2,0,low
103,5,4,1,0,0,626,1,prototype,77,1,1,1,1,0,low
103,6,4,1,0,1,1569,0,prototype,78,1,1,1,1,0,low
103,7,4,3,0,1,1491,0,rule follower,79,1,2,1,1,0,low
103,8,4,5,1,1,1058,1,exception,80,1,1,2,2,0,low
103,9,4,7,1,1,850,1,rule follower,81,1,2,2,2,0,low
103,10,4,4,1,1,1225,1,rule follower,82,2,2,1,2,0,low
103,11,4,4,1,1,782,1,rule follower,83,2,2,1,2,0,low
103,12,4,1,0,0,556,1,prototype,84,1,1,1,1,0,low
103,13,4,8,1,1,737,1,prototype,85,2,2,2,2,0,low
103,14,4,1,0,0,1068,1,prototype,86,1,1,1,1,0,low
103,15,4,8,1,1,795,1,prototype,87,2,2,2,2,0,low
103,16,4,8,1,1,659,1,prototype,88,2,2,2,2,0,low
103,17,4,8,1,1,619,1,prototype,89,2,2,2,2,0,low
103,18,4,1,0,0,711,1,prototype,90,1,1,1,1,0,low
103,19,4,3,0,0,884,1,rule follower,91,1,2,1,1,0,low
103,20,4,8,1,1,645,1,prototype,92,2,2,2,2,0,low
103,21,4,6,0,1,691,0,exception,93,2,1,2,1,0,low
103,22,4,2,0,1,747,0,rule follower,94,2,1,1,1,0,low
103,23,4,6,0,1,557,0,exception,95,2,1,2,1,0,low
103,24,4,2,0,1,711,0,rule follower,96,2,1,1,1,0,low
103,1,5,1,0,0,1086,1,prototype,97,1,1,1,1,0,low
103,2,5,1,0,0,566,1,prototype,98,1,1,1,1,0,low
103,3,5,2,0,1,603,0,rule follower,99,2,1,1,1,0,low
103,4,5,5,1,0,880,0,exception,100,1,1,2,2,0,low
103,5,5,1,0,0,1066,1,prototype,101,1,1,1,1,0,low
103,6,5,8,1,1,1053,1,prototype,102,2,2,2,2,0,low
103,7,5,2,0,1,890,0,rule follower,103,2,1,1,1,0,low
103,8,5,6,0,1,828,0,exception,104,2,1,2,1,0,low
103,9,5,8,1,1,637,1,prototype,105,2,2,2,2,0,low
103,10,5,7,1,0,630,0,rule follower,106,1,2,2,2,0,low
103,11,5,8,1,1,784,1,prototype,107,2,2,2,2,0,low
103,12,5,4,1,1,852,1,rule follower,108,2,2,1,2,0,low
103,13,5,8,1,1,759,1,prototype,109,2,2,2,2,0,low
103,14,5,1,0,0,568,1,prototype,110,1,1,1,1,0,low
103,15,5,4,1,1,813,1,rule follower,111,2,2,1,2,0,low
103,16,5,1,0,0,694,1,prototype,112,1,1,1,1,0,low
103,17,5,1,0,0,1306,1,prototype,113,1,1,1,1,0,low
103,18,5,8,1,1,836,1,prototype,114,2,2,2,2,0,low
103,19,5,5,1,0,711,0,exception,115,1,1,2,2,0,low
103,20,5,3,0,0,770,1,rule follower,116,1,2,1,1,0,low
103,21,5,7,1,0,702,0,rule follower,117,1,2,2,2,0,low
103,22,5,3,0,0,718,1,rule follower,118,1,2,1,1,0,low
103,23,5,6,0,1,864,0,exception,119,2,1,2,1,0,low
103,24,5,8,1,1,1282,1,prototype,120,2,2,2,2,0,low
103,1,6,6,0,1,859,0,exception,121,2,1,2,1,0,low
103,2,6,7,1,0,658,0,rule follower,122,1,2,2,2,0,low
103,3,6,7,1,0,1176,0,rule follower,123,1,2,2,2,0,low
103,4,6,1,0,0,1575,1,prototype,124,1,1,1,1,0,low
103,5,6,8,1,1,840,1,prototype,125,2,2,2,2,0,low
103,6,6,8,1,1,774,1,prototype,126,2,2,2,2,0,low
103,7,6,3,0,0,695,1,rule follower,127,1,2,1,1,0,low
103,8,6,1,0,0,1226,1,prototype,128,1,1,1,1,0,low
103,9,6,5,1,0,1143,0,exception,129,1,1,2,2,0,low
103,10,6,8,1,1,891,1,prototype,130,2,2,2,2,0,low
103,11,6,8,1,1,755,1,prototype,131,2,2,2,2,0,low
103,12,6,6,0,1,759,0,exception,132,2,1,2,1,0,low
103,13,6,1,0,0,1370,1,prototype,133,1,1,1,1,0,low
103,14,6,5,1,0,867,0,exception,134,1,1,2,2,0,low
103,15,6,2,0,1,798,0,rule follower,135,2,1,1,1,0,low
103,16,6,2,0,1,669,0,rule follower,136,2,1,1,1,0,low
103,17,6,1,0,0,828,1,prototype,137,1,1,1,1,0,low
103,18,6,1,0,0,764,1,prototype,138,1,1,1,1,0,low
103,19,6,8,1,1,739,1,prototype,139,2,2,2,2,0,low
103,20,6,1,0,0,915,1,prototype,140,1,1,1,1,0,low
103,21,6,8,1,1,839,1,prototype,141,2,2,2,2,0,low
103,22,6,3,0,0,808,1,rule follower,142,1,2,1,1,0,low
103,23,6,4,1,1,868,1,rule follower,143,2,2,1,2,0,low
103,24,6,4,1,1,1260,1,rule follower,144,2,2,1,2,0,low
104,1,1,1,0,NA,NA,0,prototype,1,1,1,1,1,0.75,high
104,2,1,7,1,0,1057,0,rule follower,2,2,2,1,2,0.75,high
104,3,1,5,1,1,2165,1,exception,3,2,1,1,2,0.75,high
104,4,1,8,1,0,1866,0,prototype,4,2,2,2,2,0.75,high
104,5,1,2,0,0,1395,1,rule follower,5,1,1,2,1,0.75,high
104,6,1,1,0,1,2317,0,prototype,6,1,1,1,1,0.75,high
104,7,1,8,1,1,1638,1,prototype,7,2,2,2,2,0.75,high
104,8,1,8,1,1,858,1,prototype,8,2,2,2,2,0.75,high
104,9,1,3,0,0,800,1,rule follower,9,1,2,1,1,0.75,high
104,10,1,7,1,1,889,1,rule follower,10,2,2,1,2,0.75,high
104,11,1,8,1,1,814,1,prototype,11,2,2,2,2,0.75,high
104,12,1,8,1,1,791,1,prototype,12,2,2,2,2,0.75,high
104,13,1,8,1,1,901,1,prototype,13,2,2,2,2,0.75,high
104,14,1,1,0,0,823,1,prototype,14,1,1,1,1,0.75,high
104,15,1,4,1,0,1083,0,rule follower,15,1,2,2,2,0.75,high
104,16,1,2,0,0,1509,1,rule follower,16,1,1,2,1,0.75,high
104,17,1,3,0,1,1616,0,rule follower,17,1,2,1,1,0.75,high
104,18,1,6,0,1,1440,0,exception,18,2,1,2,1,0.75,high
104,19,1,5,1,0,1079,0,exception,19,2,1,1,2,0.75,high
104,20,1,1,0,0,1904,1,prototype,20,1,1,1,1,0.75,high
104,21,1,1,0,0,1111,1,prototype,21,1,1,1,1,0.75,high
104,22,1,4,1,1,1586,1,rule follower,22,1,2,2,2,0.75,high
104,23,1,6,0,0,2030,1,exception,23,2,1,2,1,0.75,high
104,24,1,1,0,0,1341,1,prototype,24,1,1,1,1,0.75,high
104,1,2,1,0,0,880,1,prototype,25,1,1,1,1,0.75,high
104,2,2,4,1,1,745,1,rule follower,26,1,2,2,2,0.75,high
104,3,2,6,0,0,923,1,exception,27,2,1,2,1,0.75,high
104,4,2,5,1,0,712,0,exception,28,2,1,1,2,0.75,high
104,5,2,8,1,1,774,1,prototype,29,2,2,2,2,0.75,high
104,6,2,7,1,1,842,1,rule follower,30,2,2,1,2,0.75,high
104,7,2,5,1,1,891,1,exception,31,2,1,1,2,0.75,high
104,8,2,1,0,0,976,1,prototype,32,1,1,1,1,0.75,high
104,9,2,1,0,0,698,1,prototype,33,1,1,1,1,0.75,high
104,10,2,3,0,1,1285,0,rule follower,34,1,2,1,1,0.75,high
104,11,2,1,0,0,951,1,prototype,35,1,1,1,1,0.75,high
104,12,2,7,1,1,795,1,rule follower,36,2,2,1,2,0.75,high
104,13,2,8,1,1,1647,1,prototype,37,2,2,2,2,0.75,high
104,14,2,4,1,1,1905,1,rule follower,38,1,2,2,2,0.75,high
104,15,2,3,0,1,1728,0,rule follower,39,1,2,1,1,0.75,high
104,16,2,8,1,1,1037,1,prototype,40,2,2,2,2,0.75,high
104,17,2,2,0,0,857,1,rule follower,41,1,1,2,1,0.75,high
104,18,2,2,0,0,1138,1,rule follower,42,1,1,2,1,0.75,high
104,19,2,8,1,1,984,1,prototype,43,2,2,2,2,0.75,high
104,20,2,6,0,0,1486,1,exception,44,2,1,2,1,0.75,high
104,21,2,8,1,1,712,1,prototype,45,2,2,2,2,0.75,high
104,22,2,1,0,0,1073,1,prototype,46,1,1,1,1,0.75,high
104,23,2,1,0,0,1133,1,prototype,47,1,1,1,1,0.75,high
104,24,2,8,1,1,698,1,prototype,48,2,2,2,2,0.75,high
104,1,3,6,0,0,943,1,exception,49,2,1,2,1,0.75,high
104,2,3,1,0,0,847,1,prototype,50,1,1,1,1,0.75,high
104,3,3,1,0,0,802,1,prototype,51,1,1,1,1,0.75,high
104,4,3,4,1,1,1195,1,rule follower,52,1,2,2,2,0.75,high
104,5,3,2,0,0,1134,1,rule follower,53,1,1,2,1,0.75,high
104,6,3,8,1,1,734,1,prototype,54,2,2,2,2,0.75,high
104,7,3,8,1,1,599,1,prototype,55,2,2,2,2,0.75,high
104,8,3,1,0,0,591,1,prototype,56,1,1,1,1,0.75,high
104,9,3,1,0,0,658,1,prototype,57,1,1,1,1,0.75,high
104,10,3,8,1,1,482,1,prototype,58,2,2,2,2,0.75,high
104,11,3,5,1,0,1215,0,exception,59,2,1,1,2,0.75,high
104,12,3,8,1,1,626,1,prototype,60,2,2,2,2,0.75,high
104,13,3,7,1,1,370,1,rule follower,61,2,2,1,2,0.75,high
104,14,3,2,0,0,526,1,rule follower,62,1,1,2,1,0.75,high
104,15,3,7,1,1,935,1,rule follower,63,2,2,1,2,0.75,high
104,16,3,6,0,1,1434,0,exception,64,2,1,2,1,0.75,high
104,17,3,1,0,0,602,1,prototype,65,1,1,1,1,0.75,high
104,18,3,8,1,1,642,1,prototype,66,2,2,2,2,0.75,high
104,19,3,8,1,1,582,1,prototype,67,2,2,2,2,0.75,high
104,20,3,1,0,0,433,1,prototype,68,1,1,1,1,0.75,high
104,21,3,5,1,0,698,0,exception,69,2,1,1,2,0.75,high
104,22,3,3,0,1,878,0,rule follower,70,1,2,1,1,0.75,high
104,23,3,3,0,1,866,0,rule follower,71,1,2,1,1,0.75,high
104,24,3,4,1,0,1204,0,rule follower,72,1,2,2,2,0.75,high
104,1,4,6,0,0,858,1,exception,73,2,1,2,1,0.75,high
104,2,4,4,1,1,648,1,rule follower,74,1,2,2,2,0.75,high
104,3,4,3,0,1,796,0,rule follower,75,1,2,1,1,0.75,high
104,4,4,2,0,0,1334,1,rule follower,76,1,1,2,1,0.75,high
104,5,4,8,1,1,1287,1,prototype,77,2,2,2,2,0.75,high
104,6,4,8,1,0,1029,0,prototype,78,2,2,2,2,0.75,high
104,7,4,1,0,0,946,1,prototype,79,1,1,1,1,0.75,high
104,8,4,8,1,1,686,1,prototype,80,2,2,2,2,0.75,high
104,9,4,1,0,0,806,1,prototype,81,1,1,1,1,0.75,high
104,10,4,1,0,0,905,1,prototype,82,1,1,1,1,0.75,high
104,11,4,3,0,1,1133,0,rule follower,83,1,2,1,1,0.75,high
104,12,4,8,1,1,958,1,prototype,84,2,2,2,2,0.75,high
104,13,4,8,1,1,992,1,prototype,85,2,2,2,2,0.75,high
104,14,4,2,0,0,961,1,rule follower,86,1,1,2,1,0.75,high
104,15,4,8,1,1,1127,1,prototype,87,2,2,2,2,0.75,high
104,16,4,5,1,0,1118,0,exception,88,2,1,1,2,0.75,high
104,17,4,6,0,1,803,0,exception,89,2,1,2,1,0.75,high
104,18,4,7,1,1,1419,1,rule follower,90,2,2,1,2,0.75,high
104,19,4,1,0,0,1542,1,prototype,91,1,1,1,1,0.75,high
104,20,4,1,0,0,845,1,prototype,92,1,1,1,1,0.75,high
104,21,4,1,0,0,584,1,prototype,93,1,1,1,1,0.75,high
104,22,4,4,1,0,1063,0,rule follower,94,1,2,2,2,0.75,high
104,23,4,7,1,1,869,1,rule follower,95,2,2,1,2,0.75,high
104,24,4,5,1,0,1253,0,exception,96,2,1,1,2,0.75,high
104,1,5,1,0,0,999,1,prototype,97,1,1,1,1,0.75,high
104,2,5,1,0,0,639,1,prototype,98,1,1,1,1,0.75,high
104,3,5,1,0,0,836,1,prototype,99,1,1,1,1,0.75,high
104,4,5,6,0,1,1364,0,exception,100,2,1,2,1,0.75,high
104,5,5,8,1,1,732,1,prototype,101,2,2,2,2,0.75,high
104,6,5,7,1,1,619,1,rule follower,102,2,2,1,2,0.75,high
104,7,5,2,0,0,697,1,rule follower,103,1,1,2,1,0.75,high
104,8,5,2,0,0,603,1,rule follower,104,1,1,2,1,0.75,high
104,9,5,8,1,1,575,1,prototype,105,2,2,2,2,0.75,high
104,10,5,1,0,0,585,1,prototype,106,1,1,1,1,0.75,high
104,11,5,8,1,1,688,1,prototype,107,2,2,2,2,0.75,high
104,12,5,8,1,1,771,1,prototype,108,2,2,2,2,0.75,high
104,13,5,1,0,0,834,1,prototype,109,1,1,1,1,0.75,high
104,14,5,3,0,1,1224,0,rule follower,110,1,2,1,1,0.75,high
104,15,5,8,1,1,956,1,prototype,111,2,2,2,2,0.75,high
104,16,5,5,1,1,1311,1,exception,112,2,1,1,2,0.75,high
104,17,5,1,0,0,906,1,prototype,113,1,1,1,1,0.75,high
104,18,5,8,1,1,833,1,prototype,114,2,2,2,2,0.75,high
104,19,5,3,0,0,676,1,rule follower,115,1,2,1,1,0.75,high
104,20,5,5,1,1,1555,1,exception,116,2,1,1,2,0.75,high
104,21,5,6,0,1,1024,0,exception,117,2,1,2,1,0.75,high
104,22,5,7,1,1,742,1,rule follower,118,2,2,1,2,0.75,high
104,23,5,4,1,0,1530,0,rule follower,119,1,2,2,2,0.75,high
104,24,5,4,1,1,1050,1,rule follower,120,1,2,2,2,0.75,high
104,1,6,8,1,1,734,1,prototype,121,2,2,2,2,0.75,high
104,2,6,2,0,0,682,1,rule follower,122,1,1,2,1,0.75,high
104,3,6,2,0,0,577,1,rule follower,123,1,1,2,1,0.75,high
104,4,6,1,0,0,733,1,prototype,124,1,1,1,1,0.75,high
104,5,6,8,1,1,589,1,prototype,125,2,2,2,2,0.75,high
104,6,6,8,1,1,1450,1,prototype,126,2,2,2,2,0.75,high
104,7,6,1,0,0,684,1,prototype,127,1,1,1,1,0.75,high
104,8,6,6,0,0,1051,1,exception,128,2,1,2,1,0.75,high
104,9,6,8,1,1,909,1,prototype,129,2,2,2,2,0.75,high
104,10,6,7,1,1,660,1,rule follower,130,2,2,1,2,0.75,high
104,11,6,6,0,0,930,1,exception,131,2,1,2,1,0.75,high
104,12,6,1,0,0,802,1,prototype,132,1,1,1,1,0.75,high
104,13,6,3,0,0,1553,1,rule follower,133,1,2,1,1,0.75,high
104,14,6,8,1,1,1296,1,prototype,134,2,2,2,2,0.75,high
104,15,6,1,0,0,1447,1,prototype,135,1,1,1,1,0.75,high
104,16,6,4,1,0,1085,0,rule follower,136,1,2,2,2,0.75,high
104,17,6,4,1,1,780,1,rule follower,137,1,2,2,2,0.75,high
104,18,6,8,1,1,524,1,prototype,138,2,2,2,2,0.75,high
104,19,6,5,1,1,1524,1,exception,139,2,1,1,2,0.75,high
104,20,6,3,0,1,885,0,rule follower,140,1,2,1,1,0.75,high
104,21,6,1,0,0,824,1,prototype,141,1,1,1,1,0.75,high
104,22,6,7,1,1,748,1,rule follower,142,2,2,1,2,0.75,high
104,23,6,1,0,0,1157,1,prototype,143,1,1,1,1,0.75,high
104,24,6,5,1,1,1675,1,exception,144,2,1,1,2,0.75,high
105,1,1,1,0,1,924,0,prototype,1,1,1,1,1,0.125,low
105,2,1,1,0,1,314,0,prototype,2,1,1,1,1,0.125,low
105,3,1,1,0,0,650,1,prototype,3,1,1,1,1,0.125,low
105,4,1,1,0,0,819,1,prototype,4,1,1,1,1,0.125,low
105,5,1,4,1,NA,NA,0,rule follower,5,1,2,2,2,0.125,low
105,6,1,3,0,1,475,0,rule follower,6,1,2,1,1,0.125,low
105,7,1,2,0,0,332,1,rule follower,7,1,1,2,1,0.125,low
105,8,1,1,0,0,894,1,prototype,8,1,1,1,1,0.125,low
105,9,1,8,1,1,2463,1,prototype,9,2,2,2,2,0.125,low
105,10,1,5,1,NA,NA,0,exception,10,2,1,1,2,0.125,low
105,11,1,8,1,1,2441,1,prototype,11,2,2,2,2,0.125,low
105,12,1,6,0,0,1016,1,exception,12,2,1,2,1,0.125,low
105,13,1,8,1,0,1851,0,prototype,13,2,2,2,2,0.125,low
105,14,1,2,0,0,1303,1,rule follower,14,1,1,2,1,0.125,low
105,15,1,8,1,1,631,1,prototype,15,2,2,2,2,0.125,low
105,16,1,7,1,1,905,1,rule follower,16,2,2,1,2,0.125,low
105,17,1,8,1,1,768,1,prototype,17,2,2,2,2,0.125,low
105,18,1,7,1,1,1082,1,rule follower,18,2,2,1,2,0.125,low
105,19,1,8,1,1,968,1,prototype,19,2,2,2,2,0.125,low
105,20,1,5,1,0,1389,0,exception,20,2,1,1,2,0.125,low
105,21,1,4,1,1,1575,1,rule follower,21,1,2,2,2,0.125,low
105,22,1,3,0,1,1328,0,rule follower,22,1,2,1,1,0.125,low
105,23,1,1,0,0,1670,1,prototype,23,1,1,1,1,0.125,low
105,24,1,6,0,1,1135,0,exception,24,2,1,2,1,0.125,low
105,1,2,7,1,0,2195,0,rule follower,25,2,2,1,2,0.125,low
105,2,2,6,0,0,858,1,exception,26,2,1,2,1,0.125,low
105,3,2,1,0,1,1328,0,prototype,27,1,1,1,1,0.125,low
105,4,2,1,0,0,943,1,prototype,28,1,1,1,1,0.125,low
105,5,2,4,1,0,1967,0,rule follower,29,1,2,2,2,0.125,low
105,6,2,3,0,1,827,0,rule follower,30,1,2,1,1,0.125,low
105,7,2,2,0,0,1279,1,rule follower,31,1,1,2,1,0.125,low
105,8,2,8,1,1,2332,1,prototype,32,2,2,2,2,0.125,low
105,9,2,8,1,1,1173,1,prototype,33,2,2,2,2,0.125,low
105,10,2,1,0,1,1581,0,prototype,34,1,1,1,1,0.125,low
105,11,2,1,0,0,1394,1,prototype,35,1,1,1,1,0.125,low
105,12,2,3,0,1,1398,0,rule follower,36,1,2,1,1,0.125,low
105,13,2,7,1,0,1929,0,rule follower,37,2,2,1,2,0.125,low
105,14,2,6,0,1,666,0,exception,38,2,1,2,1,0.125,low
105,15,2,1,0,0,2166,1,prototype,39,1,1,1,1,0.125,low
105,16,2,2,0,0,942,1,rule follower,40,1,1,2,1,0.125,low
105,17,2,1,0,0,666,1,prototype,41,1,1,1,1,0.125,low
105,18,2,8,1,1,1823,1,prototype,42,2,2,2,2,0.125,low
105,19,2,8,1,1,1548,1,prototype,43,2,2,2,2,0.125,low
105,20,2,5,1,0,1427,0,exception,44,2,1,1,2,0.125,low
105,21,2,5,1,0,1167,0,exception,45,2,1,1,2,0.125,low
105,22,2,4,1,1,228,1,rule follower,46,1,2,2,2,0.125,low
105,23,2,8,1,1,2142,1,prototype,47,2,2,2,2,0.125,low
105,24,2,8,1,1,892,1,prototype,48,2,2,2,2,0.125,low
105,1,3,3,0,1,1259,0,rule follower,49,1,2,1,1,0.125,low
105,2,3,7,1,1,1553,1,rule follower,50,2,2,1,2,0.125,low
105,3,3,1,0,0,838,1,prototype,51,1,1,1,1,0.125,low
105,4,3,1,0,0,791,1,prototype,52,1,1,1,1,0.125,low
105,5,3,8,1,1,1805,1,prototype,53,2,2,2,2,0.125,low
105,6,3,1,0,0,669,1,prototype,54,1,1,1,1,0.125,low
105,7,3,3,0,0,1452,1,rule follower,55,1,2,1,1,0.125,low
105,8,3,8,1,1,1190,1,prototype,56,2,2,2,2,0.125,low
105,9,3,7,1,1,1186,1,rule follower,57,2,2,1,2,0.125,low
105,10,3,8,1,1,1051,1,prototype,58,2,2,2,2,0.125,low
105,11,3,4,1,0,1006,0,rule follower,59,1,2,2,2,0.125,low
105,12,3,6,0,1,715,0,exception,60,2,1,2,1,0.125,low
105,13,3,8,1,0,730,0,prototype,61,2,2,2,2,0.125,low
105,14,3,2,0,0,1489,1,rule follower,62,1,1,2,1,0.125,low
105,15,3,4,1,NA,NA,0,rule follower,63,1,2,2,2,0.125,low
105,16,3,1,0,1,1167,0,prototype,64,1,1,1,1,0.125,low
105,17,3,2,0,0,1078,1,rule follower,65,1,1,2,1,0.125,low
105,18,3,5,1,0,1537,0,exception,66,2,1,1,2,0.125,low
105,19,3,8,1,1,2712,1,prototype,67,2,2,2,2,0.125,low
105,20,3,8,1,1,1513,1,prototype,68,2,2,2,2,0.125,low
105,21,3,1,0,1,2355,0,prototype,69,1,1,1,1,0.125,low
105,22,3,5,1,1,247,1,exception,70,2,1,1,2,0.125,low
105,23,3,6,0,1,1459,0,exception,71,2,1,2,1,0.125,low
105,24,3,1,0,0,1405,1,prototype,72,1,1,1,1,0.125,low
105,1,4,8,1,NA,NA,0,prototype,73,2,2,2,2,0.125,low
105,2,4,4,1,1,1094,1,rule follower,74,1,2,2,2,0.125,low
105,3,4,2,0,1,1389,0,rule follower,75,1,1,2,1,0.125,low
105,4,4,8,1,1,1162,1,prototype,76,2,2,2,2,0.125,low
105,5,4,6,0,0,732,1,exception,77,2,1,2,1,0.125,low
105,6,4,1,0,0,1314,1,prototype,78,1,1,1,1,0.125,low
105,7,4,1,0,0,1029,1,prototype,79,1,1,1,1,0.125,low
105,8,4,8,1,1,1641,1,prototype,80,2,2,2,2,0.125,low
105,9,4,7,1,1,820,1,rule follower,81,2,2,1,2,0.125,low
105,10,4,2,0,0,870,1,rule follower,82,1,1,2,1,0.125,low
105,11,4,3,0,1,979,0,rule follower,83,1,2,1,1,0.125,low
105,12,4,4,1,0,1491,0,rule follower,84,1,2,2,2,0.125,low
105,13,4,5,1,NA,NA,0,exception,85,2,1,1,2,0.125,low
105,14,4,1,0,0,2513,1,prototype,86,1,1,1,1,0.125,low
105,15,4,8,1,1,1756,1,prototype,87,2,2,2,2,0.125,low
105,16,4,5,1,0,1682,0,exception,88,2,1,1,2,0.125,low
105,17,4,1,0,0,1670,1,prototype,89,1,1,1,1,0.125,low
105,18,4,1,0,0,1739,1,prototype,90,1,1,1,1,0.125,low
105,19,4,1,0,0,1353,1,prototype,91,1,1,1,1,0.125,low
105,20,4,6,0,1,1592,0,exception,92,2,1,2,1,0.125,low
105,21,4,7,1,1,980,1,rule follower,93,2,2,1,2,0.125,low
105,22,4,8,1,1,1172,1,prototype,94,2,2,2,2,0.125,low
105,23,4,8,1,1,1965,1,prototype,95,2,2,2,2,0.125,low
105,24,4,3,0,0,1790,1,rule follower,96,1,2,1,1,0.125,low
105,1,5,3,0,NA,NA,0,rule follower,97,1,2,1,1,0.125,low
105,2,5,2,0,1,1140,0,rule follower,98,1,1,2,1,0.125,low
105,3,5,5,1,0,1546,0,exception,99,2,1,1,2,0.125,low
105,4,5,1,0,0,1976,1,prototype,100,1,1,1,1,0.125,low
105,5,5,1,0,0,1542,1,prototype,101,1,1,1,1,0.125,low
105,6,5,7,1,1,1615,1,rule follower,102,2,2,1,2,0.125,low
105,7,5,1,0,0,2145,1,prototype,103,1,1,1,1,0.125,low
105,8,5,3,0,1,2938,0,rule follower,104,1,2,1,1,0.125,low
105,9,5,8,1,1,1749,1,prototype,105,2,2,2,2,0.125,low
105,10,5,5,1,0,1565,0,exception,106,2,1,1,2,0.125,low
105,11,5,2,0,0,1516,1,rule follower,107,1,1,2,1,0.125,low
105,12,5,8,1,1,1104,1,prototype,108,2,2,2,2,0.125,low
105,13,5,8,1,1,2396,1,prototype,109,2,2,2,2,0.125,low
105,14,5,8,1,1,1283,1,prototype,110,2,2,2,2,0.125,low
105,15,5,4,1,NA,NA,0,rule follower,111,1,2,2,2,0.125,low
105,16,5,1,0,0,1133,1,prototype,112,1,1,1,1,0.125,low
105,17,5,1,0,0,1957,1,prototype,113,1,1,1,1,0.125,low
105,18,5,4,1,0,2203,0,rule follower,114,1,2,2,2,0.125,low
105,19,5,8,1,1,770,1,prototype,115,2,2,2,2,0.125,low
105,20,5,6,0,1,1153,0,exception,116,2,1,2,1,0.125,low
105,21,5,1,0,0,960,1,prototype,117,1,1,1,1,0.125,low
105,22,5,6,0,1,935,0,exception,118,2,1,2,1,0.125,low
105,23,5,7,1,1,1311,1,rule follower,119,2,2,1,2,0.125,low
105,24,5,8,1,1,999,1,prototype,120,2,2,2,2,0.125,low
105,1,6,7,1,1,845,1,rule follower,121,2,2,1,2,0.125,low
105,2,6,1,0,0,1213,1,prototype,122,1,1,1,1,0.125,low
105,3,6,8,1,1,1194,1,prototype,123,2,2,2,2,0.125,low
105,4,6,1,0,0,2080,1,prototype,124,1,1,1,1,0.125,low
105,5,6,8,1,1,930,1,prototype,125,2,2,2,2,0.125,low
105,6,6,4,1,NA,NA,0,rule follower,126,1,2,2,2,0.125,low
105,7,6,8,1,1,777,1,prototype,127,2,2,2,2,0.125,low
105,8,6,5,1,0,695,0,exception,128,2,1,1,2,0.125,low
105,9,6,8,1,1,684,1,prototype,129,2,2,2,2,0.125,low
105,10,6,2,0,0,958,1,rule follower,130,1,1,2,1,0.125,low
105,11,6,1,0,0,1150,1,prototype,131,1,1,1,1,0.125,low
105,12,6,6,0,1,1198,0,exception,132,2,1,2,1,0.125,low
105,13,6,2,0,0,1125,1,rule follower,133,1,1,2,1,0.125,low
105,14,6,5,1,0,1272,0,exception,134,2,1,1,2,0.125,low
105,15,6,8,1,1,720,1,prototype,135,2,2,2,2,0.125,low
105,16,6,1,0,0,1145,1,prototype,136,1,1,1,1,0.125,low
105,17,6,6,0,0,2417,1,exception,137,2,1,2,1,0.125,low
105,18,6,3,0,1,2784,0,rule follower,138,1,2,1,1,0.125,low
105,19,6,1,0,0,893,1,prototype,139,1,1,1,1,0.125,low
105,20,6,1,0,0,787,1,prototype,140,1,1,1,1,0.125,low
105,21,6,8,1,1,937,1,prototype,141,2,2,2,2,0.125,low
105,22,6,7,1,1,701,1,rule follower,142,2,2,1,2,0.125,low
105,23,6,4,1,0,2160,0,rule follower,143,1,2,2,2,0.125,low
105,24,6,3,0,1,1484,0,rule follower,144,1,2,1,1,0.125,low
107,1,1,1,0,NA,NA,0,prototype,1,1,1,1,1,0.625,high
107,2,1,3,0,1,811,0,rule follower,2,1,1,2,1,0.625,high
107,3,1,7,1,0,546,0,rule follower,3,2,1,2,2,0.625,high
107,4,1,5,1,1,779,1,exception,4,2,1,1,2,0.625,high
107,5,1,1,0,0,872,1,prototype,5,1,1,1,1,0.625,high
107,6,1,1,0,0,542,1,prototype,6,1,1,1,1,0.625,high
107,7,1,2,0,0,553,1,rule follower,7,1,2,1,1,0.625,high
107,8,1,1,0,0,828,1,prototype,8,1,1,1,1,0.625,high
107,9,1,8,1,1,762,1,prototype,9,2,2,2,2,0.625,high
107,10,1,8,1,1,514,1,prototype,10,2,2,2,2,0.625,high
107,11,1,8,1,1,687,1,prototype,11,2,2,2,2,0.625,high
107,12,1,5,1,1,531,1,exception,12,2,1,1,2,0.625,high
107,13,1,4,1,0,485,0,rule follower,13,1,2,2,2,0.625,high
107,14,1,7,1,0,697,0,rule follower,14,2,1,2,2,0.625,high
107,15,1,6,0,1,865,0,exception,15,2,2,1,1,0.625,high
107,16,1,8,1,0,853,0,prototype,16,2,2,2,2,0.625,high
107,17,1,2,0,0,1114,1,rule follower,17,1,2,1,1,0.625,high
107,18,1,1,0,0,822,1,prototype,18,1,1,1,1,0.625,high
107,19,1,1,0,0,693,1,prototype,19,1,1,1,1,0.625,high
107,20,1,8,1,1,998,1,prototype,20,2,2,2,2,0.625,high
107,21,1,3,0,0,806,1,rule follower,21,1,1,2,1,0.625,high
107,22,1,4,1,0,1125,0,rule follower,22,1,2,2,2,0.625,high
107,23,1,6,0,1,912,0,exception,23,2,2,1,1,0.625,high
107,24,1,8,1,1,985,1,prototype,24,2,2,2,2,0.625,high
107,1,2,6,0,1,2659,0,exception,25,2,2,1,1,0.625,high
107,2,2,6,0,1,1188,0,exception,26,2,2,1,1,0.625,high
107,3,2,8,1,0,957,0,prototype,27,2,2,2,2,0.625,high
107,4,2,8,1,1,1146,1,prototype,28,2,2,2,2,0.625,high
107,5,2,1,0,0,807,1,prototype,29,1,1,1,1,0.625,high
107,6,2,2,0,0,1226,1,rule follower,30,1,2,1,1,0.625,high
107,7,2,1,0,0,761,1,prototype,31,1,1,1,1,0.625,high
107,8,2,7,1,1,787,1,rule follower,32,2,1,2,2,0.625,high
107,9,2,5,1,1,707,1,exception,33,2,1,1,2,0.625,high
107,10,2,3,0,0,927,1,rule follower,34,1,1,2,1,0.625,high
107,11,2,8,1,1,1192,1,prototype,35,2,2,2,2,0.625,high
107,12,2,2,0,0,617,1,rule follower,36,1,2,1,1,0.625,high
107,13,2,4,1,0,607,0,rule follower,37,1,2,2,2,0.625,high
107,14,2,8,1,0,850,0,prototype,38,2,2,2,2,0.625,high
107,15,2,7,1,0,889,0,rule follower,39,2,1,2,2,0.625,high
107,16,2,1,0,0,563,1,prototype,40,1,1,1,1,0.625,high
107,17,2,8,1,1,736,1,prototype,41,2,2,2,2,0.625,high
107,18,2,8,1,1,1092,1,prototype,42,2,2,2,2,0.625,high
107,19,2,3,0,0,654,1,rule follower,43,1,1,2,1,0.625,high
107,20,2,4,1,0,555,0,rule follower,44,1,2,2,2,0.625,high
107,21,2,5,1,1,785,1,exception,45,2,1,1,2,0.625,high
107,22,2,1,0,0,717,1,prototype,46,1,1,1,1,0.625,high
107,23,2,1,0,0,492,1,prototype,47,1,1,1,1,0.625,high
107,24,2,1,0,0,526,1,prototype,48,1,1,1,1,0.625,high
107,1,3,2,0,NA,NA,0,rule follower,49,1,2,1,1,0.625,high
107,2,3,1,0,0,586,1,prototype,50,1,1,1,1,0.625,high
107,3,3,1,0,0,1009,1,prototype,51,1,1,1,1,0.625,high
107,4,3,5,1,1,449,1,exception,52,2,1,1,2,0.625,high
107,5,3,1,0,0,1819,1,prototype,53,1,1,1,1,0.625,high
107,6,3,1,0,0,625,1,prototype,54,1,1,1,1,0.625,high
107,7,3,3,0,0,553,1,rule follower,55,1,1,2,1,0.625,high
107,8,3,5,1,1,881,1,exception,56,2,1,1,2,0.625,high
107,9,3,1,0,0,631,1,prototype,57,1,1,1,1,0.625,high
107,10,3,6,0,1,1329,0,exception,58,2,2,1,1,0.625,high
107,11,3,8,1,1,833,1,prototype,59,2,2,2,2,0.625,high
107,12,3,1,0,0,562,1,prototype,60,1,1,1,1,0.625,high
107,13,3,8,1,1,678,1,prototype,61,2,2,2,2,0.625,high
107,14,3,4,1,0,552,0,rule follower,62,1,2,2,2,0.625,high
107,15,3,8,1,1,407,1,prototype,63,2,2,2,2,0.625,high
107,16,3,3,0,0,552,1,rule follower,64,1,1,2,1,0.625,high
107,17,3,8,1,1,508,1,prototype,65,2,2,2,2,0.625,high
107,18,3,8,1,1,1022,1,prototype,66,2,2,2,2,0.625,high
107,19,3,7,1,1,450,1,rule follower,67,2,1,2,2,0.625,high
107,20,3,8,1,1,639,1,prototype,68,2,2,2,2,0.625,high
107,21,3,6,0,1,1877,0,exception,69,2,2,1,1,0.625,high
107,22,3,7,1,1,523,1,rule follower,70,2,1,2,2,0.625,high
107,23,3,4,1,1,1211,1,rule follower,71,1,2,2,2,0.625,high
107,24,3,2,0,0,618,1,rule follower,72,1,2,1,1,0.625,high
107,1,4,3,0,1,815,0,rule follower,73,1,1,2,1,0.625,high
107,2,4,5,1,1,607,1,exception,74,2,1,1,2,0.625,high
107,3,4,6,0,1,786,0,exception,75,2,2,1,1,0.625,high
107,4,4,1,0,1,983,0,prototype,76,1,1,1,1,0.625,high
107,5,4,1,0,0,577,1,prototype,77,1,1,1,1,0.625,high
107,6,4,8,1,1,601,1,prototype,78,2,2,2,2,0.625,high
107,7,4,8,1,1,709,1,prototype,79,2,2,2,2,0.625,high
107,8,4,6,0,1,573,0,exception,80,2,2,1,1,0.625,high
107,9,4,7,1,1,982,1,rule follower,81,2,1,2,2,0.625,high
107,10,4,1,0,0,734,1,prototype,82,1,1,1,1,0.625,high
107,11,4,4,1,0,703,0,rule follower,83,1,2,2,2,0.625,high
107,12,4,3,0,0,949,1,rule follower,84,1,1,2,1,0.625,high
107,13,4,7,1,NA,NA,0,rule follower,85,2,1,2,2,0.625,high
107,14,4,4,1,0,550,0,rule follower,86,1,2,2,2,0.625,high
107,15,4,8,1,1,585,1,prototype,87,2,2,2,2,0.625,high
107,16,4,8,1,1,432,1,prototype,88,2,2,2,2,0.625,high
107,17,4,8,1,0,1749,0,prototype,89,2,2,2,2,0.625,high
107,18,4,8,1,1,891,1,prototype,90,2,2,2,2,0.625,high
107,19,4,1,0,1,830,0,prototype,91,1,1,1,1,0.625,high
107,20,4,2,0,0,766,1,rule follower,92,1,2,1,1,0.625,high
107,21,4,1,0,0,979,1,prototype,93,1,1,1,1,0.625,high
107,22,4,1,0,0,1088,1,prototype,94,1,1,1,1,0.625,high
107,23,4,5,1,1,522,1,exception,95,2,1,1,2,0.625,high
107,24,4,2,0,0,568,1,rule follower,96,1,2,1,1,0.625,high
107,1,5,1,0,0,746,1,prototype,97,1,1,1,1,0.625,high
107,2,5,1,0,0,777,1,prototype,98,1,1,1,1,0.625,high
107,3,5,8,1,1,742,1,prototype,99,2,2,2,2,0.625,high
107,4,5,8,1,1,540,1,prototype,100,2,2,2,2,0.625,high
107,5,5,1,0,0,591,1,prototype,101,1,1,1,1,0.625,high
107,6,5,7,1,1,717,1,rule follower,102,2,1,2,2,0.625,high
107,7,5,3,0,0,632,1,rule follower,103,1,1,2,1,0.625,high
107,8,5,2,0,0,722,1,rule follower,104,1,2,1,1,0.625,high
107,9,5,6,0,1,566,0,exception,105,2,2,1,1,0.625,high
107,10,5,1,0,0,652,1,prototype,106,1,1,1,1,0.625,high
107,11,5,7,1,1,1259,1,rule follower,107,2,1,2,2,0.625,high
107,12,5,8,1,1,844,1,prototype,108,2,2,2,2,0.625,high
107,13,5,2,0,0,1374,1,rule follower,109,1,2,1,1,0.625,high
107,14,5,1,0,0,1808,1,prototype,110,1,1,1,1,0.625,high
107,15,5,6,0,1,499,0,exception,111,2,2,1,1,0.625,high
107,16,5,5,1,1,1310,1,exception,112,2,1,1,2,0.625,high
107,17,5,4,1,0,1353,0,rule follower,113,1,2,2,2,0.625,high
107,18,5,5,1,1,1186,1,exception,114,2,1,1,2,0.625,high
107,19,5,4,1,0,579,0,rule follower,115,1,2,2,2,0.625,high
107,20,5,3,0,0,726,1,rule follower,116,1,1,2,1,0.625,high
107,21,5,8,1,1,994,1,prototype,117,2,2,2,2,0.625,high
107,22,5,1,0,0,1216,1,prototype,118,1,1,1,1,0.625,high
107,23,5,8,1,1,547,1,prototype,119,2,2,2,2,0.625,high
107,24,5,8,1,1,1143,1,prototype,120,2,2,2,2,0.625,high
107,1,6,3,0,0,663,1,rule follower,121,1,1,2,1,0.625,high
107,2,6,8,1,1,679,1,prototype,122,2,2,2,2,0.625,high
107,3,6,3,0,0,567,1,rule follower,123,1,1,2,1,0.625,high
107,4,6,5,1,1,542,1,exception,124,2,1,1,2,0.625,high
107,5,6,8,1,1,2250,1,prototype,125,2,2,2,2,0.625,high
107,6,6,4,1,0,781,0,rule follower,126,1,2,2,2,0.625,high
107,7,6,2,0,0,606,1,rule follower,127,1,2,1,1,0.625,high
107,8,6,6,0,0,1036,1,exception,128,2,2,1,1,0.625,high
107,9,6,1,0,0,1977,1,prototype,129,1,1,1,1,0.625,high
107,10,6,1,0,0,677,1,prototype,130,1,1,1,1,0.625,high
107,11,6,8,1,1,1036,1,prototype,131,2,2,2,2,0.625,high
107,12,6,1,0,0,794,1,prototype,132,1,1,1,1,0.625,high
107,13,6,1,0,0,685,1,prototype,133,1,1,1,1,0.625,high
107,14,6,8,1,1,634,1,prototype,134,2,2,2,2,0.625,high
107,15,6,6,0,0,588,1,exception,135,2,2,1,1,0.625,high
107,16,6,1,0,0,629,1,prototype,136,1,1,1,1,0.625,high
107,17,6,4,1,1,566,1,rule follower,137,1,2,2,2,0.625,high
107,18,6,8,1,1,561,1,prototype,138,2,2,2,2,0.625,high
107,19,6,2,0,0,843,1,rule follower,139,1,2,1,1,0.625,high
107,20,6,7,1,1,774,1,rule follower,140,2,1,2,2,0.625,high
107,21,6,7,1,1,530,1,rule follower,141,2,1,2,2,0.625,high
107,22,6,8,1,1,743,1,prototype,142,2,2,2,2,0.625,high
107,23,6,5,1,0,849,0,exception,143,2,1,1,2,0.625,high
107,24,6,1,0,0,742,1,prototype,144,1,1,1,1,0.625,high
108,1,2,7,1,NA,NA,0,rule follower,25,2,2,1,2,0.125,low
108,2,2,2,0,1,1278,0,rule follower,26,1,1,2,1,0.125,low
108,3,2,4,1,0,197,0,rule follower,27,2,1,2,2,0.125,low
108,4,2,3,0,1,324,0,rule follower,28,2,1,1,1,0.125,low
108,5,2,8,1,1,666,1,prototype,29,2,2,2,2,0.125,low
108,6,2,5,1,0,89,0,exception,30,1,2,1,2,0.125,low
108,7,2,6,0,NA,NA,0,exception,31,1,2,2,1,0.125,low
108,8,2,1,0,1,607,0,prototype,32,1,1,1,1,0.125,low
108,9,2,5,1,0,2234,0,exception,33,1,2,1,2,0.125,low
108,10,2,6,0,1,287,0,exception,34,1,2,2,1,0.125,low
108,11,2,1,0,1,606,0,prototype,35,1,1,1,1,0.125,low
108,12,2,8,1,NA,NA,0,prototype,36,2,2,2,2,0.125,low
108,13,2,1,0,1,701,0,prototype,37,1,1,1,1,0.125,low
108,14,2,8,1,NA,NA,0,prototype,38,2,2,2,2,0.125,low
108,15,2,8,1,1,1282,1,prototype,39,2,2,2,2,0.125,low
108,16,2,1,0,1,442,0,prototype,40,1,1,1,1,0.125,low
108,17,2,8,1,1,771,1,prototype,41,2,2,2,2,0.125,low
108,18,2,1,0,NA,NA,0,prototype,42,1,1,1,1,0.125,low
108,19,2,4,1,NA,NA,0,rule follower,43,2,1,2,2,0.125,low
108,20,2,3,0,1,2036,0,rule follower,44,2,1,1,1,0.125,low
108,21,2,7,1,0,365,0,rule follower,45,2,2,1,2,0.125,low
108,22,2,1,0,0,2400,1,prototype,46,1,1,1,1,0.125,low
108,23,2,2,0,0,329,1,rule follower,47,1,1,2,1,0.125,low
108,24,2,8,1,1,2370,1,prototype,48,2,2,2,2,0.125,low
108,1,3,7,1,1,843,1,rule follower,49,2,2,1,2,0.125,low
108,2,3,8,1,1,1089,1,prototype,50,2,2,2,2,0.125,low
108,3,3,8,1,1,964,1,prototype,51,2,2,2,2,0.125,low
108,4,3,1,0,0,328,1,prototype,52,1,1,1,1,0.125,low
108,5,3,4,1,1,2410,1,rule follower,53,2,1,2,2,0.125,low
108,6,3,3,0,0,1158,1,rule follower,54,2,1,1,1,0.125,low
108,7,3,7,1,1,1563,1,rule follower,55,2,2,1,2,0.125,low
108,8,3,5,1,0,1056,0,exception,56,1,2,1,2,0.125,low
108,9,3,6,0,NA,NA,0,exception,57,1,2,2,1,0.125,low
108,10,3,1,0,1,1584,0,prototype,58,1,1,1,1,0.125,low
108,11,3,1,0,0,1282,1,prototype,59,1,1,1,1,0.125,low
108,12,3,1,0,0,925,1,prototype,60,1,1,1,1,0.125,low
108,13,3,4,1,NA,NA,0,rule follower,61,2,1,2,2,0.125,low
108,14,3,8,1,1,1710,1,prototype,62,2,2,2,2,0.125,low
108,15,3,8,1,1,643,1,prototype,63,2,2,2,2,0.125,low
108,16,3,1,0,0,714,1,prototype,64,1,1,1,1,0.125,low
108,17,3,5,1,1,1031,1,exception,65,1,2,1,2,0.125,low
108,18,3,8,1,0,949,0,prototype,66,2,2,2,2,0.125,low
108,19,3,3,0,NA,NA,0,rule follower,67,2,1,1,1,0.125,low
108,20,3,6,0,NA,NA,0,exception,68,1,2,2,1,0.125,low
108,21,3,8,1,0,663,0,prototype,69,2,2,2,2,0.125,low
108,22,3,2,0,1,1708,0,rule follower,70,1,1,2,1,0.125,low
108,23,3,2,0,1,1680,0,rule follower,71,1,1,2,1,0.125,low
108,24,3,1,0,0,916,1,prototype,72,1,1,1,1,0.125,low
108,1,4,6,0,1,1526,0,exception,73,1,2,2,1,0.125,low
108,2,4,5,1,0,711,0,exception,74,1,2,1,2,0.125,low
108,3,4,3,0,0,1205,1,rule follower,75,2,1,1,1,0.125,low
108,4,4,1,0,0,1433,1,prototype,76,1,1,1,1,0.125,low
108,5,4,4,1,NA,NA,0,rule follower,77,2,1,2,2,0.125,low
108,6,4,8,1,1,1522,1,prototype,78,2,2,2,2,0.125,low
108,7,4,8,1,1,639,1,prototype,79,2,2,2,2,0.125,low
108,8,4,7,1,1,1755,1,rule follower,80,2,2,1,2,0.125,low
108,9,4,1,0,0,762,1,prototype,81,1,1,1,1,0.125,low
108,10,4,6,0,0,1043,1,exception,82,1,2,2,1,0.125,low
108,11,4,2,0,0,628,1,rule follower,83,1,1,2,1,0.125,low
108,12,4,1,0,0,615,1,prototype,84,1,1,1,1,0.125,low
108,13,4,8,1,NA,NA,0,prototype,85,2,2,2,2,0.125,low
108,14,4,7,1,1,507,1,rule follower,86,2,2,1,2,0.125,low
108,15,4,2,0,0,742,1,rule follower,87,1,1,2,1,0.125,low
108,16,4,5,1,0,677,0,exception,88,1,2,1,2,0.125,low
108,17,4,1,0,0,1072,1,prototype,89,1,1,1,1,0.125,low
108,18,4,8,1,NA,NA,0,prototype,90,2,2,2,2,0.125,low
108,19,4,1,0,0,556,1,prototype,91,1,1,1,1,0.125,low
108,20,4,8,1,1,638,1,prototype,92,2,2,2,2,0.125,low
108,21,4,8,1,1,561,1,prototype,93,2,2,2,2,0.125,low
108,22,4,4,1,1,570,1,rule follower,94,2,1,2,2,0.125,low
108,23,4,1,0,0,518,1,prototype,95,1,1,1,1,0.125,low
108,24,4,3,0,1,595,0,rule follower,96,2,1,1,1,0.125,low
108,1,5,1,0,1,981,0,prototype,97,1,1,1,1,0.125,low
108,2,5,8,1,1,611,1,prototype,98,2,2,2,2,0.125,low
108,3,5,1,0,0,904,1,prototype,99,1,1,1,1,0.125,low
108,4,5,5,1,0,1138,0,exception,100,1,2,1,2,0.125,low
108,5,5,6,0,1,1032,0,exception,101,1,2,2,1,0.125,low
108,6,5,3,0,0,1519,1,rule follower,102,2,1,1,1,0.125,low
108,7,5,1,0,1,1677,0,prototype,103,1,1,1,1,0.125,low
108,8,5,8,1,1,783,1,prototype,104,2,2,2,2,0.125,low
108,9,5,7,1,1,890,1,rule follower,105,2,2,1,2,0.125,low
108,10,5,7,1,1,1503,1,rule follower,106,2,2,1,2,0.125,low
108,11,5,1,0,0,1138,1,prototype,107,1,1,1,1,0.125,low
108,12,5,8,1,1,859,1,prototype,108,2,2,2,2,0.125,low
108,13,5,1,0,NA,NA,0,prototype,109,1,1,1,1,0.125,low
108,14,5,8,1,1,728,1,prototype,110,2,2,2,2,0.125,low
108,15,5,1,0,0,601,1,prototype,111,1,1,1,1,0.125,low
108,16,5,8,1,1,848,1,prototype,112,2,2,2,2,0.125,low
108,17,5,8,1,1,720,1,prototype,113,2,2,2,2,0.125,low
108,18,5,4,1,1,857,1,rule follower,114,2,1,2,2,0.125,low
108,19,5,3,0,1,654,0,rule follower,115,2,1,1,1,0.125,low
108,20,5,6,0,1,1054,0,exception,116,1,2,2,1,0.125,low
108,21,5,2,0,0,738,1,rule follower,117,1,1,2,1,0.125,low
108,22,5,4,1,1,664,1,rule follower,118,2,1,2,2,0.125,low
108,23,5,5,1,0,1001,0,exception,119,1,2,1,2,0.125,low
108,24,5,2,0,0,1128,1,rule follower,120,1,1,2,1,0.125,low
108,1,6,1,0,0,793,1,prototype,121,1,1,1,1,0.125,low
108,2,6,2,0,0,722,1,rule follower,122,1,1,2,1,0.125,low
108,3,6,7,1,1,666,1,rule follower,123,2,2,1,2,0.125,low
108,4,6,8,1,1,1004,1,prototype,124,2,2,2,2,0.125,low
108,5,6,6,0,0,887,1,exception,125,1,2,2,1,0.125,low
108,6,6,7,1,1,2179,1,rule follower,126,2,2,1,2,0.125,low
108,7,6,5,1,NA,NA,0,exception,127,1,2,1,2,0.125,low
108,8,6,6,0,1,1281,0,exception,128,1,2,2,1,0.125,low
108,9,6,5,1,0,1781,0,exception,129,1,2,1,2,0.125,low
108,10,6,3,0,0,1176,1,rule follower,130,2,1,1,1,0.125,low
108,11,6,4,1,0,1298,0,rule follower,131,2,1,2,2,0.125,low
108,12,6,1,0,NA,NA,0,prototype,132,1,1,1,1,0.125,low
108,13,6,1,0,1,1271,0,prototype,133,1,1,1,1,0.125,low
108,14,6,1,0,0,786,1,prototype,134,1,1,1,1,0.125,low
108,15,6,2,0,0,716,1,rule follower,135,1,1,2,1,0.125,low
108,16,6,1,0,0,865,1,prototype,136,1,1,1,1,0.125,low
108,17,6,8,1,1,589,1,prototype,137,2,2,2,2,0.125,low
108,18,6,8,1,1,780,1,prototype,138,2,2,2,2,0.125,low
108,19,6,3,0,NA,NA,0,rule follower,139,2,1,1,1,0.125,low
108,20,6,8,1,1,956,1,prototype,140,2,2,2,2,0.125,low
108,21,6,8,1,1,1163,1,prototype,141,2,2,2,2,0.125,low
108,22,6,1,0,0,812,1,prototype,142,1,1,1,1,0.125,low
108,23,6,4,1,1,1136,1,rule follower,143,2,1,2,2,0.125,low
108,24,6,8,1,1,1103,1,prototype,144,2,2,2,2,0.125,low
109,1,1,6,0,1,893,0,exception,1,1,2,2,1,0.375,low
109,2,1,4,1,0,376,0,rule follower,2,2,1,2,2,0.375,low
109,3,1,8,1,1,1015,1,prototype,3,2,2,2,2,0.375,low
109,4,1,8,1,0,880,0,prototype,4,2,2,2,2,0.375,low
109,5,1,1,0,0,897,1,prototype,5,1,1,1,1,0.375,low
109,6,1,3,0,1,489,0,rule follower,6,2,1,1,1,0.375,low
109,7,1,1,0,0,696,1,prototype,7,1,1,1,1,0.375,low
109,8,1,2,0,0,549,1,rule follower,8,1,1,2,1,0.375,low
109,9,1,8,1,1,636,1,prototype,9,2,2,2,2,0.375,low
109,10,1,1,0,0,703,1,prototype,10,1,1,1,1,0.375,low
109,11,1,8,1,1,970,1,prototype,11,2,2,2,2,0.375,low
109,12,1,5,1,0,574,0,exception,12,1,2,1,2,0.375,low
109,13,1,4,1,1,1176,1,rule follower,13,2,1,2,2,0.375,low
109,14,1,5,1,0,554,0,exception,14,1,2,1,2,0.375,low
109,15,1,6,0,1,725,0,exception,15,1,2,2,1,0.375,low
109,16,1,1,0,1,662,0,prototype,16,1,1,1,1,0.375,low
109,17,1,8,1,1,710,1,prototype,17,2,2,2,2,0.375,low
109,18,1,3,0,1,698,0,rule follower,18,2,1,1,1,0.375,low
109,19,1,7,1,0,1110,0,rule follower,19,2,2,1,2,0.375,low
109,20,1,2,0,1,909,0,rule follower,20,1,1,2,1,0.375,low
109,21,1,1,0,0,584,1,prototype,21,1,1,1,1,0.375,low
109,22,1,7,1,1,679,1,rule follower,22,2,2,1,2,0.375,low
109,23,1,1,0,0,525,1,prototype,23,1,1,1,1,0.375,low
109,24,1,8,1,1,742,1,prototype,24,2,2,2,2,0.375,low
109,1,2,4,1,1,669,1,rule follower,25,2,1,2,2,0.375,low
109,2,2,1,0,0,449,1,prototype,26,1,1,1,1,0.375,low
109,3,2,1,0,0,494,1,prototype,27,1,1,1,1,0.375,low
109,4,2,1,0,0,492,1,prototype,28,1,1,1,1,0.375,low
109,5,2,6,0,0,470,1,exception,29,1,2,2,1,0.375,low
109,6,2,2,0,0,341,1,rule follower,30,1,1,2,1,0.375,low
109,7,2,1,0,0,452,1,prototype,31,1,1,1,1,0.375,low
109,8,2,8,1,1,537,1,prototype,32,2,2,2,2,0.375,low
109,9,2,2,0,0,542,1,rule follower,33,1,1,2,1,0.375,low
109,10,2,8,1,1,406,1,prototype,34,2,2,2,2,0.375,low
109,11,2,3,0,1,664,0,rule follower,35,2,1,1,1,0.375,low
109,12,2,4,1,0,664,0,rule follower,36,2,1,2,2,0.375,low
109,13,2,1,0,0,554,1,prototype,37,1,1,1,1,0.375,low
109,14,2,8,1,1,616,1,prototype,38,2,2,2,2,0.375,low
109,15,2,6,0,0,537,1,exception,39,1,2,2,1,0.375,low
109,16,2,8,1,0,745,0,prototype,40,2,2,2,2,0.375,low
109,17,2,8,1,1,713,1,prototype,41,2,2,2,2,0.375,low
109,18,2,7,1,1,574,1,rule follower,42,2,2,1,2,0.375,low
109,19,2,5,1,0,555,0,exception,43,1,2,1,2,0.375,low
109,20,2,1,0,0,640,1,prototype,44,1,1,1,1,0.375,low
109,21,2,8,1,1,778,1,prototype,45,2,2,2,2,0.375,low
109,22,2,3,0,1,616,0,rule follower,46,2,1,1,1,0.375,low
109,23,2,7,1,1,697,1,rule follower,47,2,2,1,2,0.375,low
109,24,2,5,1,0,759,0,exception,48,1,2,1,2,0.375,low
109,1,3,1,0,0,605,1,prototype,49,1,1,1,1,0.375,low
109,2,3,2,0,0,673,1,rule follower,50,1,1,2,1,0.375,low
109,3,3,8,1,1,589,1,prototype,51,2,2,2,2,0.375,low
109,4,3,7,1,1,478,1,rule follower,52,2,2,1,2,0.375,low
109,5,3,3,0,0,593,1,rule follower,53,2,1,1,1,0.375,low
109,6,3,8,1,1,474,1,prototype,54,2,2,2,2,0.375,low
109,7,3,7,1,1,562,1,rule follower,55,2,2,1,2,0.375,low
109,8,3,1,0,0,635,1,prototype,56,1,1,1,1,0.375,low
109,9,3,1,0,0,489,1,prototype,57,1,1,1,1,0.375,low
109,10,3,5,1,0,463,0,exception,58,1,2,1,2,0.375,low
109,11,3,6,0,1,443,0,exception,59,1,2,2,1,0.375,low
109,12,3,8,1,1,694,1,prototype,60,2,2,2,2,0.375,low
109,13,3,6,0,1,549,0,exception,61,1,2,2,1,0.375,low
109,14,3,8,1,1,603,1,prototype,62,2,2,2,2,0.375,low
109,15,3,1,0,0,551,1,prototype,63,1,1,1,1,0.375,low
109,16,3,8,1,1,1042,1,prototype,64,2,2,2,2,0.375,low
109,17,3,3,0,0,613,1,rule follower,65,2,1,1,1,0.375,low
109,18,3,1,0,0,596,1,prototype,66,1,1,1,1,0.375,low
109,19,3,8,1,1,584,1,prototype,67,2,2,2,2,0.375,low
109,20,3,2,0,0,523,1,rule follower,68,1,1,2,1,0.375,low
109,21,3,1,0,0,490,1,prototype,69,1,1,1,1,0.375,low
109,22,3,4,1,0,811,0,rule follower,70,2,1,2,2,0.375,low
109,23,3,4,1,0,614,0,rule follower,71,2,1,2,2,0.375,low
109,24,3,5,1,1,866,1,exception,72,1,2,1,2,0.375,low
109,1,4,6,0,0,551,1,exception,73,1,2,2,1,0.375,low
109,2,4,1,0,0,591,1,prototype,74,1,1,1,1,0.375,low
109,3,4,8,1,1,565,1,prototype,75,2,2,2,2,0.375,low
109,4,4,8,1,1,608,1,prototype,76,2,2,2,2,0.375,low
109,5,4,8,1,1,581,1,prototype,77,2,2,2,2,0.375,low
109,6,4,1,0,0,579,1,prototype,78,1,1,1,1,0.375,low
109,7,4,3,0,1,546,0,rule follower,79,2,1,1,1,0.375,low
109,8,4,6,0,1,712,0,exception,80,1,2,2,1,0.375,low
109,9,4,4,1,1,724,1,rule follower,81,2,1,2,2,0.375,low
109,10,4,5,1,0,605,0,exception,82,1,2,1,2,0.375,low
109,11,4,4,1,0,838,0,rule follower,83,2,1,2,2,0.375,low
109,12,4,1,0,0,834,1,prototype,84,1,1,1,1,0.375,low
109,13,4,3,0,0,761,1,rule follower,85,2,1,1,1,0.375,low
109,14,4,5,1,0,546,0,exception,86,1,2,1,2,0.375,low
109,15,4,7,1,0,752,0,rule follower,87,2,2,1,2,0.375,low
109,16,4,7,1,1,485,1,rule follower,88,2,2,1,2,0.375,low
109,17,4,8,1,1,503,1,prototype,89,2,2,2,2,0.375,low
109,18,4,1,0,0,595,1,prototype,90,1,1,1,1,0.375,low
109,19,4,1,0,0,530,1,prototype,91,1,1,1,1,0.375,low
109,20,4,1,0,0,504,1,prototype,92,1,1,1,1,0.375,low
109,21,4,8,1,1,814,1,prototype,93,2,2,2,2,0.375,low
109,22,4,2,0,0,521,1,rule follower,94,1,1,2,1,0.375,low
109,23,4,2,0,0,548,1,rule follower,95,1,1,2,1,0.375,low
109,24,4,8,1,1,533,1,prototype,96,2,2,2,2,0.375,low
109,1,5,4,1,1,659,1,rule follower,97,2,1,2,2,0.375,low
109,2,5,6,0,0,835,1,exception,98,1,2,2,1,0.375,low
109,3,5,8,1,1,406,1,prototype,99,2,2,2,2,0.375,low
109,4,5,6,0,0,770,1,exception,100,1,2,2,1,0.375,low
109,5,5,1,0,0,550,1,prototype,101,1,1,1,1,0.375,low
109,6,5,3,0,1,548,0,rule follower,102,2,1,1,1,0.375,low
109,7,5,8,1,1,474,1,prototype,103,2,2,2,2,0.375,low
109,8,5,2,0,0,549,1,rule follower,104,1,1,2,1,0.375,low
109,9,5,5,1,0,579,0,exception,105,1,2,1,2,0.375,low
109,10,5,1,0,0,587,1,prototype,106,1,1,1,1,0.375,low
109,11,5,1,0,0,671,1,prototype,107,1,1,1,1,0.375,low
109,12,5,4,1,0,746,0,rule follower,108,2,1,2,2,0.375,low
109,13,5,8,1,1,907,1,prototype,109,2,2,2,2,0.375,low
109,14,5,5,1,0,722,0,exception,110,1,2,1,2,0.375,low
109,15,5,3,0,0,687,1,rule follower,111,2,1,1,1,0.375,low
109,16,5,8,1,1,583,1,prototype,112,2,2,2,2,0.375,low
109,17,5,2,0,0,587,1,rule follower,113,1,1,2,1,0.375,low
109,18,5,7,1,1,753,1,rule follower,114,2,2,1,2,0.375,low
109,19,5,7,1,1,567,1,rule follower,115,2,2,1,2,0.375,low
109,20,5,1,0,0,544,1,prototype,116,1,1,1,1,0.375,low
109,21,5,1,0,0,589,1,prototype,117,1,1,1,1,0.375,low
109,22,5,8,1,1,585,1,prototype,118,2,2,2,2,0.375,low
109,23,5,1,0,0,504,1,prototype,119,1,1,1,1,0.375,low
109,24,5,8,1,1,730,1,prototype,120,2,2,2,2,0.375,low
109,1,6,8,1,1,603,1,prototype,121,2,2,2,2,0.375,low
109,2,6,8,1,1,495,1,prototype,122,2,2,2,2,0.375,low
109,3,6,7,1,1,516,1,rule follower,123,2,2,1,2,0.375,low
109,4,6,6,0,0,526,1,exception,124,1,2,2,1,0.375,low
109,5,6,4,1,0,596,0,rule follower,125,2,1,2,2,0.375,low
109,6,6,5,1,0,802,0,exception,126,1,2,1,2,0.375,low
109,7,6,8,1,1,745,1,prototype,127,2,2,2,2,0.375,low
109,8,6,8,1,1,818,1,prototype,128,2,2,2,2,0.375,low
109,9,6,8,1,1,524,1,prototype,129,2,2,2,2,0.375,low
109,10,6,1,0,0,509,1,prototype,130,1,1,1,1,0.375,low
109,11,6,2,0,0,549,1,rule follower,131,1,1,2,1,0.375,low
109,12,6,3,0,1,550,0,rule follower,132,2,1,1,1,0.375,low
109,13,6,4,1,0,731,0,rule follower,133,2,1,2,2,0.375,low
109,14,6,1,0,0,580,1,prototype,134,1,1,1,1,0.375,low
109,15,6,2,0,0,728,1,rule follower,135,1,1,2,1,0.375,low
109,16,6,1,0,0,620,1,prototype,136,1,1,1,1,0.375,low
109,17,6,6,0,1,889,0,exception,137,1,2,2,1,0.375,low
109,18,6,8,1,1,457,1,prototype,138,2,2,2,2,0.375,low
109,19,6,7,1,1,585,1,rule follower,139,2,2,1,2,0.375,low
109,20,6,3,0,0,761,1,rule follower,140,2,1,1,1,0.375,low
109,21,6,5,1,0,546,0,exception,141,1,2,1,2,0.375,low
109,22,6,1,0,0,444,1,prototype,142,1,1,1,1,0.375,low
109,23,6,1,0,0,576,1,prototype,143,1,1,1,1,0.375,low
109,24,6,1,0,0,565,1,prototype,144,1,1,1,1,0.375,low
110,1,1,1,0,1,2563,0,prototype,1,1,1,1,1,0.4,low
110,2,1,3,0,0,1666,1,rule follower,2,1,1,2,1,0.4,low
110,3,1,6,0,0,707,1,exception,3,2,2,1,1,0.4,low
110,4,1,5,1,0,791,0,exception,4,2,1,1,2,0.4,low
110,5,1,1,0,0,2528,1,prototype,5,1,1,1,1,0.4,low
110,6,1,7,1,1,1204,1,rule follower,6,2,1,2,2,0.4,low
110,7,1,8,1,1,971,1,prototype,7,2,2,2,2,0.4,low
110,8,1,1,0,0,814,1,prototype,8,1,1,1,1,0.4,low
110,9,1,7,1,1,841,1,rule follower,9,2,1,2,2,0.4,low
110,10,1,5,1,1,942,1,exception,10,2,1,1,2,0.4,low
110,11,1,8,1,1,883,1,prototype,11,2,2,2,2,0.4,low
110,12,1,6,0,1,791,0,exception,12,2,2,1,1,0.4,low
110,13,1,8,1,0,1516,0,prototype,13,2,2,2,2,0.4,low
110,14,1,4,1,0,1135,0,rule follower,14,1,2,2,2,0.4,low
110,15,1,2,0,1,1598,0,rule follower,15,1,2,1,1,0.4,low
110,16,1,8,1,NA,NA,0,prototype,16,2,2,2,2,0.4,low
110,17,1,4,1,0,1656,0,rule follower,17,1,2,2,2,0.4,low
110,18,1,3,0,1,1366,0,rule follower,18,1,1,2,1,0.4,low
110,19,1,1,0,0,1416,1,prototype,19,1,1,1,1,0.4,low
110,20,1,1,0,0,1595,1,prototype,20,1,1,1,1,0.4,low
110,21,1,8,1,1,935,1,prototype,21,2,2,2,2,0.4,low
110,22,1,1,0,0,953,1,prototype,22,1,1,1,1,0.4,low
110,23,1,2,0,0,1123,1,rule follower,23,1,2,1,1,0.4,low
110,24,1,8,1,1,1078,1,prototype,24,2,2,2,2,0.4,low
110,1,2,1,0,0,948,1,prototype,25,1,1,1,1,0.4,low
110,2,2,8,1,1,903,1,prototype,26,2,2,2,2,0.4,low
110,3,2,2,0,0,768,1,rule follower,27,1,2,1,1,0.4,low
110,4,2,1,0,0,2267,1,prototype,28,1,1,1,1,0.4,low
110,5,2,8,1,1,752,1,prototype,29,2,2,2,2,0.4,low
110,6,2,2,0,0,835,1,rule follower,30,1,2,1,1,0.4,low
110,7,2,1,0,0,1356,1,prototype,31,1,1,1,1,0.4,low
110,8,2,3,0,0,872,1,rule follower,32,1,1,2,1,0.4,low
110,9,2,8,1,1,792,1,prototype,33,2,2,2,2,0.4,low
110,10,2,7,1,1,981,1,rule follower,34,2,1,2,2,0.4,low
110,11,2,5,1,1,788,1,exception,35,2,1,1,2,0.4,low
110,12,2,7,1,1,578,1,rule follower,36,2,1,2,2,0.4,low
110,13,2,8,1,1,764,1,prototype,37,2,2,2,2,0.4,low
110,14,2,1,0,0,695,1,prototype,38,1,1,1,1,0.4,low
110,15,2,4,1,0,764,0,rule follower,39,1,2,2,2,0.4,low
110,16,2,6,0,0,1282,1,exception,40,2,2,1,1,0.4,low
110,17,2,1,0,1,722,0,prototype,41,1,1,1,1,0.4,low
110,18,2,4,1,0,1573,0,rule follower,42,1,2,2,2,0.4,low
110,19,2,8,1,1,2391,1,prototype,43,2,2,2,2,0.4,low
110,20,2,6,0,1,1023,0,exception,44,2,2,1,1,0.4,low
110,21,2,1,0,0,1346,1,prototype,45,1,1,1,1,0.4,low
110,22,2,8,1,1,1083,1,prototype,46,2,2,2,2,0.4,low
110,23,2,5,1,1,966,1,exception,47,2,1,1,2,0.4,low
110,24,2,3,0,0,1151,1,rule follower,48,1,1,2,1,0.4,low
110,1,3,1,0,0,1763,1,prototype,49,1,1,1,1,0.4,low
110,2,3,6,0,1,555,0,exception,50,2,2,1,1,0.4,low
110,3,3,5,1,1,1012,1,exception,51,2,1,1,2,0.4,low
110,4,3,4,1,0,903,0,rule follower,52,1,2,2,2,0.4,low
110,5,3,8,1,1,967,1,prototype,53,2,2,2,2,0.4,low
110,6,3,7,1,0,727,0,rule follower,54,2,1,2,2,0.4,low
110,7,3,8,1,1,766,1,prototype,55,2,2,2,2,0.4,low
110,8,3,1,0,0,740,1,prototype,56,1,1,1,1,0.4,low
110,9,3,8,1,1,746,1,prototype,57,2,2,2,2,0.4,low
110,10,3,5,1,0,883,0,exception,58,2,1,1,2,0.4,low
110,11,3,1,0,0,671,1,prototype,59,1,1,1,1,0.4,low
110,12,3,6,0,1,681,0,exception,60,2,2,1,1,0.4,low
110,13,3,2,0,0,676,1,rule follower,61,1,2,1,1,0.4,low
110,14,3,2,0,0,1116,1,rule follower,62,1,2,1,1,0.4,low
110,15,3,3,0,0,919,1,rule follower,63,1,1,2,1,0.4,low
110,16,3,3,0,0,969,1,rule follower,64,1,1,2,1,0.4,low
110,17,3,8,1,1,1123,1,prototype,65,2,2,2,2,0.4,low
110,18,3,1,0,0,735,1,prototype,66,1,1,1,1,0.4,low
110,19,3,4,1,0,942,0,rule follower,67,1,2,2,2,0.4,low
110,20,3,8,1,1,631,1,prototype,68,2,2,2,2,0.4,low
110,21,3,1,0,0,877,1,prototype,69,1,1,1,1,0.4,low
110,22,3,1,0,0,917,1,prototype,70,1,1,1,1,0.4,low
110,23,3,7,1,1,1005,1,rule follower,71,2,1,2,2,0.4,low
110,24,3,8,1,1,1033,1,prototype,72,2,2,2,2,0.4,low
110,1,4,6,0,1,942,0,exception,73,2,2,1,1,0.4,low
110,2,4,5,1,0,1102,0,exception,74,2,1,1,2,0.4,low
110,3,4,1,0,0,720,1,prototype,75,1,1,1,1,0.4,low
110,4,4,4,1,0,688,0,rule follower,76,1,2,2,2,0.4,low
110,5,4,8,1,1,1831,1,prototype,77,2,2,2,2,0.4,low
110,6,4,1,0,0,795,1,prototype,78,1,1,1,1,0.4,low
110,7,4,3,0,0,1562,1,rule follower,79,1,1,2,1,0.4,low
110,8,4,2,0,0,589,1,rule follower,80,1,2,1,1,0.4,low
110,9,4,1,0,0,874,1,prototype,81,1,1,1,1,0.4,low
110,10,4,5,1,1,677,1,exception,82,2,1,1,2,0.4,low
110,11,4,8,1,1,544,1,prototype,83,2,2,2,2,0.4,low
110,12,4,1,0,0,829,1,prototype,84,1,1,1,1,0.4,low
110,13,4,4,1,0,2292,0,rule follower,85,1,2,2,2,0.4,low
110,14,4,2,0,0,1033,1,rule follower,86,1,2,1,1,0.4,low
110,15,4,8,1,1,755,1,prototype,87,2,2,2,2,0.4,low
110,16,4,3,0,0,731,1,rule follower,88,1,1,2,1,0.4,low
110,17,4,1,0,0,1295,1,prototype,89,1,1,1,1,0.4,low
110,18,4,8,1,1,999,1,prototype,90,2,2,2,2,0.4,low
110,19,4,8,1,1,1388,1,prototype,91,2,2,2,2,0.4,low
110,20,4,1,0,0,854,1,prototype,92,1,1,1,1,0.4,low
110,21,4,6,0,1,986,0,exception,93,2,2,1,1,0.4,low
110,22,4,8,1,1,1307,1,prototype,94,2,2,2,2,0.4,low
110,23,4,7,1,1,1339,1,rule follower,95,2,1,2,2,0.4,low
110,24,4,7,1,1,857,1,rule follower,96,2,1,2,2,0.4,low
110,1,5,1,0,0,1551,1,prototype,97,1,1,1,1,0.4,low
110,2,5,8,1,1,1146,1,prototype,98,2,2,2,2,0.4,low
110,3,5,1,0,0,977,1,prototype,99,1,1,1,1,0.4,low
110,4,5,3,0,0,1515,1,rule follower,100,1,1,2,1,0.4,low
110,5,5,1,0,0,1541,1,prototype,101,1,1,1,1,0.4,low
110,6,5,8,1,1,1215,1,prototype,102,2,2,2,2,0.4,low
110,7,5,5,1,1,1355,1,exception,103,2,1,1,2,0.4,low
110,8,5,8,1,1,1242,1,prototype,104,2,2,2,2,0.4,low
110,9,5,7,1,1,1145,1,rule follower,105,2,1,2,2,0.4,low
110,10,5,7,1,1,984,1,rule follower,106,2,1,2,2,0.4,low
110,11,5,1,0,0,807,1,prototype,107,1,1,1,1,0.4,low
110,12,5,6,0,1,731,0,exception,108,2,2,1,1,0.4,low
110,13,5,3,0,0,823,1,rule follower,109,1,1,2,1,0.4,low
110,14,5,2,0,0,1083,1,rule follower,110,1,2,1,1,0.4,low
110,15,5,8,1,1,1075,1,prototype,111,2,2,2,2,0.4,low
110,16,5,4,1,0,913,0,rule follower,112,1,2,2,2,0.4,low
110,17,5,8,1,1,854,1,prototype,113,2,2,2,2,0.4,low
110,18,5,5,1,1,1156,1,exception,114,2,1,1,2,0.4,low
110,19,5,4,1,0,1000,0,rule follower,115,1,2,2,2,0.4,low
110,20,5,1,0,0,1008,1,prototype,116,1,1,1,1,0.4,low
110,21,5,2,0,0,864,1,rule follower,117,1,2,1,1,0.4,low
110,22,5,1,0,0,1481,1,prototype,118,1,1,1,1,0.4,low
110,23,5,6,0,1,981,0,exception,119,2,2,1,1,0.4,low
110,24,5,8,1,1,1261,1,prototype,120,2,2,2,2,0.4,low
110,1,6,1,0,0,1232,1,prototype,121,1,1,1,1,0.4,low
110,2,6,2,0,0,1869,1,rule follower,122,1,2,1,1,0.4,low
110,3,6,8,1,1,1147,1,prototype,123,2,2,2,2,0.4,low
110,4,6,5,1,NA,NA,0,exception,124,2,1,1,2,0.4,low
111,1,1,8,1,1,1562,1,prototype,1,2,2,2,2,0.5,med
111,2,1,5,1,0,1414,0,exception,2,1,2,1,2,0.5,med
111,3,1,8,1,1,1290,1,prototype,3,2,2,2,2,0.5,med
111,4,1,4,1,1,1390,1,rule follower,4,2,1,2,2,0.5,med
111,5,1,1,0,1,1430,0,prototype,5,1,1,1,1,0.5,med
111,6,1,1,0,0,1171,1,prototype,6,1,1,1,1,0.5,med
111,7,1,8,1,1,839,1,prototype,7,2,2,2,2,0.5,med
111,8,1,2,0,1,973,0,rule follower,8,2,1,1,1,0.5,med
111,9,1,8,1,1,1679,1,prototype,9,2,2,2,2,0.5,med
111,10,1,1,0,0,2188,1,prototype,10,1,1,1,1,0.5,med
111,11,1,1,0,0,1398,1,prototype,11,1,1,1,1,0.5,med
111,12,1,7,1,1,1081,1,rule follower,12,1,2,2,2,0.5,med
111,13,1,3,0,0,736,1,rule follower,13,1,1,2,1,0.5,med
111,14,1,5,1,1,545,1,exception,14,1,2,1,2,0.5,med
111,15,1,8,1,1,1120,1,prototype,15,2,2,2,2,0.5,med
111,16,1,1,0,0,802,1,prototype,16,1,1,1,1,0.5,med
111,17,1,1,0,0,830,1,prototype,17,1,1,1,1,0.5,med
111,18,1,7,1,1,833,1,rule follower,18,1,2,2,2,0.5,med
111,19,1,6,0,1,828,0,exception,19,2,2,1,1,0.5,med
111,20,1,3,0,0,2008,1,rule follower,20,1,1,2,1,0.5,med
111,21,1,2,0,0,1328,1,rule follower,21,2,1,1,1,0.5,med
111,22,1,6,0,0,2724,1,exception,22,2,2,1,1,0.5,med
111,23,1,8,1,NA,NA,0,prototype,23,2,2,2,2,0.5,med
111,24,1,4,1,0,1449,0,rule follower,24,2,1,2,2,0.5,med
111,1,2,2,0,0,1073,1,rule follower,25,2,1,1,1,0.5,med
111,2,2,6,0,0,1814,1,exception,26,2,2,1,1,0.5,med
111,3,2,5,1,1,1259,1,exception,27,1,2,1,2,0.5,med
111,4,2,7,1,1,971,1,rule follower,28,1,2,2,2,0.5,med
111,5,2,8,1,0,1113,0,prototype,29,2,2,2,2,0.5,med
111,6,2,7,1,1,1525,1,rule follower,30,1,2,2,2,0.5,med
111,7,2,1,0,0,968,1,prototype,31,1,1,1,1,0.5,med
111,8,2,5,1,1,1822,1,exception,32,1,2,1,2,0.5,med
111,9,2,6,0,0,2643,1,exception,33,2,2,1,1,0.5,med
111,10,2,1,0,0,1201,1,prototype,34,1,1,1,1,0.5,med
111,11,2,3,0,0,1016,1,rule follower,35,1,1,2,1,0.5,med
111,12,2,4,1,0,1053,0,rule follower,36,2,1,2,2,0.5,med
111,13,2,8,1,1,2581,1,prototype,37,2,2,2,2,0.5,med
111,14,2,1,0,0,981,1,prototype,38,1,1,1,1,0.5,med
111,15,2,1,0,0,802,1,prototype,39,1,1,1,1,0.5,med
111,16,2,8,1,0,1928,0,prototype,40,2,2,2,2,0.5,med
111,17,2,3,0,0,829,1,rule follower,41,1,1,2,1,0.5,med
111,18,2,1,0,0,1091,1,prototype,42,1,1,1,1,0.5,med
111,19,2,8,1,1,2136,1,prototype,43,2,2,2,2,0.5,med
111,20,2,8,1,0,2639,0,prototype,44,2,2,2,2,0.5,med
111,21,2,2,0,0,2807,1,rule follower,45,2,1,1,1,0.5,med
111,22,2,4,1,0,2125,0,rule follower,46,2,1,2,2,0.5,med
111,23,2,1,0,0,1097,1,prototype,47,1,1,1,1,0.5,med
111,24,2,8,1,0,2383,0,prototype,48,2,2,2,2,0.5,med
111,1,3,8,1,NA,NA,0,prototype,49,2,2,2,2,0.5,med
111,2,3,8,1,1,1220,1,prototype,50,2,2,2,2,0.5,med
111,3,3,1,0,0,1016,1,prototype,51,1,1,1,1,0.5,med
111,4,3,5,1,1,2098,1,exception,52,1,2,1,2,0.5,med
111,5,3,3,0,0,1255,1,rule follower,53,1,1,2,1,0.5,med
111,6,3,1,0,0,946,1,prototype,54,1,1,1,1,0.5,med
111,7,3,1,0,0,1211,1,prototype,55,1,1,1,1,0.5,med
111,8,3,1,0,0,949,1,prototype,56,1,1,1,1,0.5,med
111,9,3,5,1,1,1596,1,exception,57,1,2,1,2,0.5,med
111,10,3,4,1,1,2613,1,rule follower,58,2,1,2,2,0.5,med
111,11,3,7,1,1,1422,1,rule follower,59,1,2,2,2,0.5,med
111,12,3,8,1,0,1880,0,prototype,60,2,2,2,2,0.5,med
111,13,3,6,0,1,1735,0,exception,61,2,2,1,1,0.5,med
111,14,3,8,1,1,2368,1,prototype,62,2,2,2,2,0.5,med
111,15,3,8,1,1,1677,1,prototype,63,2,2,2,2,0.5,med
111,16,3,7,1,1,1432,1,rule follower,64,1,2,2,2,0.5,med
111,17,3,6,0,0,2460,1,exception,65,2,2,1,1,0.5,med
111,18,3,8,1,0,2711,0,prototype,66,2,2,2,2,0.5,med
111,19,3,1,0,0,1365,1,prototype,67,1,1,1,1,0.5,med
111,20,3,4,1,1,2583,1,rule follower,68,2,1,2,2,0.5,med
111,21,3,3,0,0,1298,1,rule follower,69,1,1,2,1,0.5,med
111,22,3,2,0,0,2403,1,rule follower,70,2,1,1,1,0.5,med
111,23,3,2,0,1,2424,0,rule follower,71,2,1,1,1,0.5,med
111,24,3,1,0,0,1527,1,prototype,72,1,1,1,1,0.5,med
111,1,4,3,0,0,1137,1,rule follower,73,1,1,2,1,0.5,med
111,2,4,5,1,1,1625,1,exception,74,1,2,1,2,0.5,med
111,3,4,2,0,0,2573,1,rule follower,75,2,1,1,1,0.5,med
111,4,4,1,0,0,1503,1,prototype,76,1,1,1,1,0.5,med
111,5,4,1,0,0,1331,1,prototype,77,1,1,1,1,0.5,med
111,6,4,5,1,1,1362,1,exception,78,1,2,1,2,0.5,med
111,7,4,8,1,0,2520,0,prototype,79,2,2,2,2,0.5,med
111,8,4,8,1,1,2161,1,prototype,80,2,2,2,2,0.5,med
111,9,4,1,0,0,1301,1,prototype,81,1,1,1,1,0.5,med
111,10,4,4,1,0,1721,0,rule follower,82,2,1,2,2,0.5,med
111,11,4,8,1,1,2767,1,prototype,83,2,2,2,2,0.5,med
111,12,4,7,1,1,1427,1,rule follower,84,1,2,2,2,0.5,med
111,13,4,8,1,1,2366,1,prototype,85,2,2,2,2,0.5,med
111,14,4,6,0,1,1470,0,exception,86,2,2,1,1,0.5,med
111,15,4,1,0,0,1777,1,prototype,87,1,1,1,1,0.5,med
111,16,4,7,1,1,2279,1,rule follower,88,1,2,2,2,0.5,med
111,17,4,8,1,1,2250,1,prototype,89,2,2,2,2,0.5,med
111,18,4,1,0,0,1416,1,prototype,90,1,1,1,1,0.5,med
111,19,4,4,1,NA,NA,0,rule follower,91,2,1,2,2,0.5,med
111,20,4,1,0,0,1431,1,prototype,92,1,1,1,1,0.5,med
111,21,4,6,0,1,1831,0,exception,93,2,2,1,1,0.5,med
111,22,4,3,0,0,1153,1,rule follower,94,1,1,2,1,0.5,med
111,23,4,2,0,1,2636,0,rule follower,95,2,1,1,1,0.5,med
111,24,4,8,1,1,2336,1,prototype,96,2,2,2,2,0.5,med
111,1,5,8,1,1,2770,1,prototype,97,2,2,2,2,0.5,med
111,2,5,4,1,0,1156,0,rule follower,98,2,1,2,2,0.5,med
111,3,5,2,0,0,2461,1,rule follower,99,2,1,1,1,0.5,med
111,4,5,6,0,1,2236,0,exception,100,2,2,1,1,0.5,med
111,5,5,1,0,0,1525,1,prototype,101,1,1,1,1,0.5,med
111,6,5,4,1,1,2225,1,rule follower,102,2,1,2,2,0.5,med
111,7,5,8,1,0,2206,0,prototype,103,2,2,2,2,0.5,med
111,8,5,1,0,0,830,1,prototype,104,1,1,1,1,0.5,med
111,9,5,8,1,1,2285,1,prototype,105,2,2,2,2,0.5,med
111,10,5,8,1,0,2233,0,prototype,106,2,2,2,2,0.5,med
111,11,5,1,0,0,811,1,prototype,107,1,1,1,1,0.5,med
111,12,5,8,1,1,2258,1,prototype,108,2,2,2,2,0.5,med
111,13,5,1,0,0,822,1,prototype,109,1,1,1,1,0.5,med
111,14,5,1,0,0,1023,1,prototype,110,1,1,1,1,0.5,med
111,15,5,3,0,0,882,1,rule follower,111,1,1,2,1,0.5,med
111,16,5,8,1,1,1797,1,prototype,112,2,2,2,2,0.5,med
111,17,5,7,1,1,2222,1,rule follower,113,1,2,2,2,0.5,med
111,18,5,2,0,0,1654,1,rule follower,114,2,1,1,1,0.5,med
111,19,5,3,0,0,985,1,rule follower,115,1,1,2,1,0.5,med
111,20,5,5,1,1,1549,1,exception,116,1,2,1,2,0.5,med
111,21,5,7,1,1,1391,1,rule follower,117,1,2,2,2,0.5,med
111,22,5,6,0,1,2649,0,exception,118,2,2,1,1,0.5,med
111,23,5,5,1,1,934,1,exception,119,1,2,1,2,0.5,med
111,24,5,1,0,0,1155,1,prototype,120,1,1,1,1,0.5,med
111,1,6,1,0,0,1221,1,prototype,121,1,1,1,1,0.5,med
111,2,6,3,0,0,1201,1,rule follower,122,1,1,2,1,0.5,med
111,3,6,8,1,1,2451,1,prototype,123,2,2,2,2,0.5,med
111,4,6,7,1,1,2487,1,rule follower,124,1,2,2,2,0.5,med
111,5,6,2,0,0,2023,1,rule follower,125,2,1,1,1,0.5,med
111,6,6,8,1,1,2199,1,prototype,126,2,2,2,2,0.5,med
111,7,6,5,1,1,983,1,exception,127,1,2,1,2,0.5,med
111,8,6,6,0,1,1378,0,exception,128,2,2,1,1,0.5,med
111,9,6,2,0,0,2030,1,rule follower,129,2,1,1,1,0.5,med
111,10,6,7,1,1,1462,1,rule follower,130,1,2,2,2,0.5,med
111,11,6,3,0,0,1519,1,rule follower,131,1,1,2,1,0.5,med
111,12,6,5,1,1,1506,1,exception,132,1,2,1,2,0.5,med
111,13,6,1,0,0,1329,1,prototype,133,1,1,1,1,0.5,med
111,14,6,8,1,0,2218,0,prototype,134,2,2,2,2,0.5,med
111,15,6,8,1,0,2127,0,prototype,135,2,2,2,2,0.5,med
111,16,6,4,1,0,2188,0,rule follower,136,2,1,2,2,0.5,med
111,17,6,4,1,0,1640,0,rule follower,137,2,1,2,2,0.5,med
111,18,6,6,0,1,2211,0,exception,138,2,2,1,1,0.5,med
111,19,6,1,0,0,1019,1,prototype,139,1,1,1,1,0.5,med
111,20,6,1,0,0,1425,1,prototype,140,1,1,1,1,0.5,med
111,21,6,1,0,0,917,1,prototype,141,1,1,1,1,0.5,med
111,22,6,8,1,1,1795,1,prototype,142,2,2,2,2,0.5,med
111,23,6,1,0,0,1189,1,prototype,143,1,1,1,1,0.5,med
111,24,6,8,1,1,1153,1,prototype,144,2,2,2,2,0.5,med
112,1,1,8,1,NA,NA,0,prototype,1,2,2,2,2,0.375,low
112,2,1,2,0,NA,NA,0,rule follower,2,1,1,2,1,0.375,low
112,3,1,7,1,NA,NA,0,rule follower,3,2,2,1,2,0.375,low
112,4,1,8,1,NA,NA,0,prototype,4,2,2,2,2,0.375,low
112,5,1,1,0,NA,NA,0,prototype,5,1,1,1,1,0.375,low
112,6,1,3,0,NA,NA,0,rule follower,6,1,2,1,1,0.375,low
112,7,1,1,0,NA,NA,0,prototype,7,1,1,1,1,0.375,low
112,8,1,5,1,NA,NA,0,exception,8,2,1,1,2,0.375,low
112,9,1,6,0,NA,NA,0,exception,9,2,1,2,1,0.375,low
112,10,1,8,1,NA,NA,0,prototype,10,2,2,2,2,0.375,low
112,11,1,6,0,1,830,0,exception,11,2,1,2,1,0.375,low
112,12,1,7,1,0,531,0,rule follower,12,2,2,1,2,0.375,low
112,13,1,8,1,1,1130,1,prototype,13,2,2,2,2,0.375,low
112,14,1,4,1,0,892,0,rule follower,14,1,2,2,2,0.375,low
112,15,1,1,0,0,1290,1,prototype,15,1,1,1,1,0.375,low
112,16,1,3,0,1,730,0,rule follower,16,1,2,1,1,0.375,low
112,17,1,8,1,1,1346,1,prototype,17,2,2,2,2,0.375,low
112,18,1,2,0,0,627,1,rule follower,18,1,1,2,1,0.375,low
112,19,1,1,0,0,769,1,prototype,19,1,1,1,1,0.375,low
112,20,1,5,1,1,1198,1,exception,20,2,1,1,2,0.375,low
112,21,1,1,0,0,1943,1,prototype,21,1,1,1,1,0.375,low
112,22,1,8,1,1,806,1,prototype,22,2,2,2,2,0.375,low
112,23,1,4,1,1,1586,1,rule follower,23,1,2,2,2,0.375,low
112,24,1,1,0,0,1751,1,prototype,24,1,1,1,1,0.375,low
112,1,2,7,1,1,1270,1,rule follower,25,2,2,1,2,0.375,low
112,2,2,2,0,0,848,1,rule follower,26,1,1,2,1,0.375,low
112,3,2,8,1,1,557,1,prototype,27,2,2,2,2,0.375,low
112,4,2,8,1,1,843,1,prototype,28,2,2,2,2,0.375,low
112,5,2,1,0,0,783,1,prototype,29,1,1,1,1,0.375,low
112,6,2,4,1,1,669,1,rule follower,30,1,2,2,2,0.375,low
112,7,2,5,1,0,725,0,exception,31,2,1,1,2,0.375,low
112,8,2,4,1,1,1174,1,rule follower,32,1,2,2,2,0.375,low
112,9,2,2,0,0,2648,1,rule follower,33,1,1,2,1,0.375,low
112,10,2,6,0,1,1596,0,exception,34,2,1,2,1,0.375,low
112,11,2,3,0,1,921,0,rule follower,35,1,2,1,1,0.375,low
112,12,2,7,1,1,874,1,rule follower,36,2,2,1,2,0.375,low
112,13,2,3,0,1,2132,0,rule follower,37,1,2,1,1,0.375,low
112,14,2,8,1,1,1086,1,prototype,38,2,2,2,2,0.375,low
112,15,2,1,0,0,1723,1,prototype,39,1,1,1,1,0.375,low
112,16,2,6,0,1,1764,0,exception,40,2,1,2,1,0.375,low
112,17,2,8,1,1,874,1,prototype,41,2,2,2,2,0.375,low
112,18,2,8,1,1,1570,1,prototype,42,2,2,2,2,0.375,low
112,19,2,1,0,0,2379,1,prototype,43,1,1,1,1,0.375,low
112,20,2,5,1,0,1734,0,exception,44,2,1,1,2,0.375,low
112,21,2,1,0,0,1175,1,prototype,45,1,1,1,1,0.375,low
112,22,2,1,0,0,1556,1,prototype,46,1,1,1,1,0.375,low
112,23,2,1,0,0,896,1,prototype,47,1,1,1,1,0.375,low
112,24,2,8,1,1,1082,1,prototype,48,2,2,2,2,0.375,low
112,1,3,7,1,1,927,1,rule follower,49,2,2,1,2,0.375,low
112,2,3,1,0,0,999,1,prototype,50,1,1,1,1,0.375,low
112,3,3,1,0,0,610,1,prototype,51,1,1,1,1,0.375,low
112,4,3,4,1,0,783,0,rule follower,52,1,2,2,2,0.375,low
112,5,3,4,1,1,1040,1,rule follower,53,1,2,2,2,0.375,low
112,6,3,8,1,1,812,1,prototype,54,2,2,2,2,0.375,low
112,7,3,8,1,1,503,1,prototype,55,2,2,2,2,0.375,low
112,8,3,1,0,0,892,1,prototype,56,1,1,1,1,0.375,low
112,9,3,8,1,1,892,1,prototype,57,2,2,2,2,0.375,low
112,10,3,5,1,0,1694,0,exception,58,2,1,1,2,0.375,low
112,11,3,1,0,0,875,1,prototype,59,1,1,1,1,0.375,low
112,12,3,6,0,1,1249,0,exception,60,2,1,2,1,0.375,low
112,13,3,3,0,1,1014,0,rule follower,61,1,2,1,1,0.375,low
112,14,3,8,1,1,863,1,prototype,62,2,2,2,2,0.375,low
112,15,3,3,0,0,1912,1,rule follower,63,1,2,1,1,0.375,low
112,16,3,8,1,1,878,1,prototype,64,2,2,2,2,0.375,low
112,17,3,1,0,0,1892,1,prototype,65,1,1,1,1,0.375,low
112,18,3,7,1,1,1161,1,rule follower,66,2,2,1,2,0.375,low
112,19,3,8,1,1,947,1,prototype,67,2,2,2,2,0.375,low
112,20,3,5,1,1,1325,1,exception,68,2,1,1,2,0.375,low
112,21,3,6,0,1,1805,0,exception,69,2,1,2,1,0.375,low
112,22,3,2,0,0,1343,1,rule follower,70,1,1,2,1,0.375,low
112,23,3,1,0,0,1257,1,prototype,71,1,1,1,1,0.375,low
112,24,3,2,0,0,1022,1,rule follower,72,1,1,2,1,0.375,low
112,1,4,4,1,1,1046,1,rule follower,73,1,2,2,2,0.375,low
112,2,4,8,1,1,781,1,prototype,74,2,2,2,2,0.375,low
112,3,4,8,1,1,1063,1,prototype,75,2,2,2,2,0.375,low
112,4,4,1,0,0,673,1,prototype,76,1,1,1,1,0.375,low
112,5,4,5,1,1,2622,1,exception,77,2,1,1,2,0.375,low
112,6,4,7,1,1,765,1,rule follower,78,2,2,1,2,0.375,low
112,7,4,2,0,0,794,1,rule follower,79,1,1,2,1,0.375,low
112,8,4,7,1,1,733,1,rule follower,80,2,2,1,2,0.375,low
112,9,4,3,0,1,1220,0,rule follower,81,1,2,1,1,0.375,low
112,10,4,1,0,0,1004,1,prototype,82,1,1,1,1,0.375,low
112,11,4,3,0,0,1372,1,rule follower,83,1,2,1,1,0.375,low
112,12,4,1,0,0,1079,1,prototype,84,1,1,1,1,0.375,low
112,13,4,6,0,1,1655,0,exception,85,2,1,2,1,0.375,low
112,14,4,4,1,0,1524,0,rule follower,86,1,2,2,2,0.375,low
112,15,4,5,1,1,2286,1,exception,87,2,1,1,2,0.375,low
112,16,4,1,0,0,1006,1,prototype,88,1,1,1,1,0.375,low
112,17,4,8,1,1,1073,1,prototype,89,2,2,2,2,0.375,low
112,18,4,8,1,1,656,1,prototype,90,2,2,2,2,0.375,low
112,19,4,2,0,0,1358,1,rule follower,91,1,1,2,1,0.375,low
112,20,4,1,0,0,678,1,prototype,92,1,1,1,1,0.375,low
112,21,4,6,0,NA,NA,0,exception,93,2,1,2,1,0.375,low
112,22,4,8,1,1,980,1,prototype,94,2,2,2,2,0.375,low
112,23,4,1,0,0,790,1,prototype,95,1,1,1,1,0.375,low
112,24,4,8,1,1,760,1,prototype,96,2,2,2,2,0.375,low
112,1,5,1,0,0,840,1,prototype,97,1,1,1,1,0.375,low
112,2,5,4,1,1,1931,1,rule follower,98,1,2,2,2,0.375,low
112,3,5,3,0,1,1572,0,rule follower,99,1,2,1,1,0.375,low
112,4,5,6,0,1,2162,0,exception,100,2,1,2,1,0.375,low
112,5,5,1,0,0,936,1,prototype,101,1,1,1,1,0.375,low
112,6,5,7,1,1,1045,1,rule follower,102,2,2,1,2,0.375,low
112,7,5,7,1,1,1015,1,rule follower,103,2,2,1,2,0.375,low
112,8,5,5,1,0,2067,0,exception,104,2,1,1,2,0.375,low
112,9,5,8,1,1,768,1,prototype,105,2,2,2,2,0.375,low
112,10,5,8,1,1,988,1,prototype,106,2,2,2,2,0.375,low
112,11,5,8,1,1,800,1,prototype,107,2,2,2,2,0.375,low
112,12,5,8,1,1,777,1,prototype,108,2,2,2,2,0.375,low
112,13,5,3,0,1,2211,0,rule follower,109,1,2,1,1,0.375,low
112,14,5,8,1,1,1302,1,prototype,110,2,2,2,2,0.375,low
112,15,5,6,0,0,2016,1,exception,111,2,1,2,1,0.375,low
112,16,5,1,0,0,1318,1,prototype,112,1,1,1,1,0.375,low
112,17,5,2,0,0,1137,1,rule follower,113,1,1,2,1,0.375,low
112,18,5,1,0,0,1120,1,prototype,114,1,1,1,1,0.375,low
112,19,5,1,0,0,867,1,prototype,115,1,1,1,1,0.375,low
112,20,5,5,1,0,1848,0,exception,116,2,1,1,2,0.375,low
112,21,5,2,0,0,1115,1,rule follower,117,1,1,2,1,0.375,low
112,22,5,1,0,0,938,1,prototype,118,1,1,1,1,0.375,low
112,23,5,4,1,1,1366,1,rule follower,119,1,2,2,2,0.375,low
112,24,5,8,1,1,731,1,prototype,120,2,2,2,2,0.375,low
112,1,6,1,0,0,870,1,prototype,121,1,1,1,1,0.375,low
112,2,6,3,0,0,1243,1,rule follower,122,1,2,1,1,0.375,low
112,3,6,8,1,1,827,1,prototype,123,2,2,2,2,0.375,low
112,4,6,7,1,1,657,1,rule follower,124,2,2,1,2,0.375,low
112,5,6,6,0,0,1047,1,exception,125,2,1,2,1,0.375,low
112,6,6,1,0,0,916,1,prototype,126,1,1,1,1,0.375,low
112,7,6,8,1,1,891,1,prototype,127,2,2,2,2,0.375,low
112,8,6,8,1,1,1603,1,prototype,128,2,2,2,2,0.375,low
112,9,6,5,1,0,1224,0,exception,129,2,1,1,2,0.375,low
112,10,6,6,0,1,1518,0,exception,130,2,1,2,1,0.375,low
112,11,6,3,0,0,1941,1,rule follower,131,1,2,1,1,0.375,low
112,12,6,2,0,0,791,1,rule follower,132,1,1,2,1,0.375,low
112,13,6,1,0,0,715,1,prototype,133,1,1,1,1,0.375,low
112,14,6,1,0,0,581,1,prototype,134,1,1,1,1,0.375,low
112,15,6,4,1,0,1074,0,rule follower,135,1,2,2,2,0.375,low
112,16,6,5,1,1,1797,1,exception,136,2,1,1,2,0.375,low
112,17,6,7,1,1,1052,1,rule follower,137,2,2,1,2,0.375,low
112,18,6,8,1,1,720,1,prototype,138,2,2,2,2,0.375,low
112,19,6,8,1,1,647,1,prototype,139,2,2,2,2,0.375,low
112,20,6,1,0,0,745,1,prototype,140,1,1,1,1,0.375,low
112,21,6,2,0,0,767,1,rule follower,141,1,1,2,1,0.375,low
112,22,6,8,1,1,986,1,prototype,142,2,2,2,2,0.375,low
112,23,6,1,0,0,732,1,prototype,143,1,1,1,1,0.375,low
112,24,6,4,1,0,969,0,rule follower,144,1,2,2,2,0.375,low
113,1,1,2,0,NA,NA,0,rule follower,1,1,1,2,1,0.625,high
113,2,1,8,1,NA,NA,0,prototype,2,2,2,2,2,0.625,high
113,3,1,8,1,0,1517,0,prototype,3,2,2,2,2,0.625,high
113,4,1,5,1,0,1571,0,exception,4,1,2,1,2,0.625,high
113,5,1,6,0,1,886,0,exception,5,1,2,2,1,0.625,high
113,6,1,4,1,1,1509,1,rule follower,6,2,1,2,2,0.625,high
113,7,1,1,0,0,1817,1,prototype,7,1,1,1,1,0.625,high
113,8,1,1,0,0,1035,1,prototype,8,1,1,1,1,0.625,high
113,9,1,7,1,0,2516,0,rule follower,9,2,2,1,2,0.625,high
113,10,1,7,1,1,1882,1,rule follower,10,2,2,1,2,0.625,high
113,11,1,6,0,NA,NA,0,exception,11,1,2,2,1,0.625,high
113,12,1,1,0,0,2085,1,prototype,12,1,1,1,1,0.625,high
113,13,1,8,1,0,2204,0,prototype,13,2,2,2,2,0.625,high
113,14,1,4,1,NA,NA,0,rule follower,14,2,1,2,2,0.625,high
113,15,1,1,0,0,1188,1,prototype,15,1,1,1,1,0.625,high
113,16,1,8,1,0,1260,0,prototype,16,2,2,2,2,0.625,high
113,17,1,8,1,0,2022,0,prototype,17,2,2,2,2,0.625,high
113,18,1,1,0,0,1215,1,prototype,18,1,1,1,1,0.625,high
113,19,1,2,0,1,1484,0,rule follower,19,1,1,2,1,0.625,high
113,20,1,3,0,0,1243,1,rule follower,20,2,1,1,1,0.625,high
113,21,1,5,1,0,1185,0,exception,21,1,2,1,2,0.625,high
113,22,1,8,1,1,1270,1,prototype,22,2,2,2,2,0.625,high
113,23,1,3,0,NA,NA,0,rule follower,23,2,1,1,1,0.625,high
113,24,1,1,0,1,1622,0,prototype,24,1,1,1,1,0.625,high
113,1,2,6,0,1,1606,0,exception,25,1,2,2,1,0.625,high
113,2,2,1,0,0,1459,1,prototype,26,1,1,1,1,0.625,high
113,3,2,1,0,0,2574,1,prototype,27,1,1,1,1,0.625,high
113,4,2,3,0,1,2316,0,rule follower,28,2,1,1,1,0.625,high
113,5,2,6,0,1,917,0,exception,29,1,2,2,1,0.625,high
113,6,2,8,1,0,1016,0,prototype,30,2,2,2,2,0.625,high
113,7,2,8,1,0,1108,0,prototype,31,2,2,2,2,0.625,high
113,8,2,8,1,1,1577,1,prototype,32,2,2,2,2,0.625,high
113,9,2,1,0,0,2201,1,prototype,33,1,1,1,1,0.625,high
113,10,2,1,0,0,1142,1,prototype,34,1,1,1,1,0.625,high
113,11,2,7,1,0,2835,0,rule follower,35,2,2,1,2,0.625,high
113,12,2,5,1,0,1409,0,exception,36,1,2,1,2,0.625,high
113,13,2,2,0,0,2430,1,rule follower,37,1,1,2,1,0.625,high
113,14,2,2,0,0,1173,1,rule follower,38,1,1,2,1,0.625,high
113,15,2,1,0,1,2037,0,prototype,39,1,1,1,1,0.625,high
113,16,2,8,1,0,2864,0,prototype,40,2,2,2,2,0.625,high
113,17,2,3,0,0,1470,1,rule follower,41,2,1,1,1,0.625,high
113,18,2,5,1,1,1850,1,exception,42,1,2,1,2,0.625,high
113,19,2,4,1,0,2392,0,rule follower,43,2,1,2,2,0.625,high
113,20,2,1,0,0,1294,1,prototype,44,1,1,1,1,0.625,high
113,21,2,4,1,1,1708,1,rule follower,45,2,1,2,2,0.625,high
113,22,2,8,1,1,1678,1,prototype,46,2,2,2,2,0.625,high
113,23,2,7,1,0,1623,0,rule follower,47,2,2,1,2,0.625,high
113,24,2,8,1,0,2807,0,prototype,48,2,2,2,2,0.625,high
113,1,3,1,0,0,1680,1,prototype,49,1,1,1,1,0.625,high
113,2,3,5,1,0,631,0,exception,50,1,2,1,2,0.625,high
113,3,3,8,1,1,1469,1,prototype,51,2,2,2,2,0.625,high
113,4,3,2,0,0,1520,1,rule follower,52,1,1,2,1,0.625,high
113,5,3,1,0,0,1567,1,prototype,53,1,1,1,1,0.625,high
113,6,3,3,0,1,1703,0,rule follower,54,2,1,1,1,0.625,high
113,7,3,1,0,0,2170,1,prototype,55,1,1,1,1,0.625,high
113,8,3,1,0,0,969,1,prototype,56,1,1,1,1,0.625,high
113,9,3,7,1,1,1805,1,rule follower,57,2,2,1,2,0.625,high
113,10,3,8,1,1,2233,1,prototype,58,2,2,2,2,0.625,high
113,11,3,1,0,0,1495,1,prototype,59,1,1,1,1,0.625,high
113,12,3,2,0,1,1458,0,rule follower,60,1,1,2,1,0.625,high
113,13,3,5,1,0,849,0,exception,61,1,2,1,2,0.625,high
113,14,3,7,1,1,1435,1,rule follower,62,2,2,1,2,0.625,high
113,15,3,3,0,0,2057,1,rule follower,63,2,1,1,1,0.625,high
113,16,3,1,0,0,1165,1,prototype,64,1,1,1,1,0.625,high
113,17,3,6,0,1,1084,0,exception,65,1,2,2,1,0.625,high
113,18,3,8,1,0,2250,0,prototype,66,2,2,2,2,0.625,high
113,19,3,4,1,1,894,1,rule follower,67,2,1,2,2,0.625,high
113,20,3,4,1,0,2015,0,rule follower,68,2,1,2,2,0.625,high
113,21,3,8,1,1,604,1,prototype,69,2,2,2,2,0.625,high
113,22,3,8,1,1,905,1,prototype,70,2,2,2,2,0.625,high
113,23,3,6,0,1,827,0,exception,71,1,2,2,1,0.625,high
113,24,3,8,1,1,991,1,prototype,72,2,2,2,2,0.625,high
113,1,4,4,1,0,1772,0,rule follower,73,2,1,2,2,0.625,high
113,2,4,7,1,0,966,0,rule follower,74,2,2,1,2,0.625,high
113,3,4,1,0,0,891,1,prototype,75,1,1,1,1,0.625,high
113,4,4,1,0,0,1272,1,prototype,76,1,1,1,1,0.625,high
113,5,4,8,1,1,1169,1,prototype,77,2,2,2,2,0.625,high
113,6,4,1,0,0,855,1,prototype,78,1,1,1,1,0.625,high
113,7,4,6,0,1,1155,0,exception,79,1,2,2,1,0.625,high
113,8,4,2,0,0,1700,1,rule follower,80,1,1,2,1,0.625,high
113,9,4,4,1,1,1489,1,rule follower,81,2,1,2,2,0.625,high
113,10,4,8,1,1,2087,1,prototype,82,2,2,2,2,0.625,high
113,11,4,5,1,0,1837,0,exception,83,1,2,1,2,0.625,high
113,12,4,5,1,0,1396,0,exception,84,1,2,1,2,0.625,high
113,13,4,3,0,1,2115,0,rule follower,85,2,1,1,1,0.625,high
113,14,4,3,0,0,2395,1,rule follower,86,2,1,1,1,0.625,high
113,15,4,1,0,0,1415,1,prototype,87,1,1,1,1,0.625,high
113,16,4,8,1,1,1019,1,prototype,88,2,2,2,2,0.625,high
113,17,4,2,0,0,2194,1,rule follower,89,1,1,2,1,0.625,high
113,18,4,8,1,1,1843,1,prototype,90,2,2,2,2,0.625,high
113,19,4,7,1,0,2195,0,rule follower,91,2,2,1,2,0.625,high
113,20,4,1,0,0,944,1,prototype,92,1,1,1,1,0.625,high
113,21,4,8,1,1,2110,1,prototype,93,2,2,2,2,0.625,high
113,22,4,1,0,0,1470,1,prototype,94,1,1,1,1,0.625,high
113,23,4,8,1,1,1638,1,prototype,95,2,2,2,2,0.625,high
113,24,4,6,0,0,1385,1,exception,96,1,2,2,1,0.625,high
113,1,5,2,0,0,2424,1,rule follower,97,1,1,2,1,0.625,high
113,2,5,1,0,0,2102,1,prototype,98,1,1,1,1,0.625,high
113,3,5,7,1,0,2429,0,rule follower,99,2,2,1,2,0.625,high
113,4,5,8,1,1,1242,1,prototype,100,2,2,2,2,0.625,high
113,5,5,2,0,1,2352,0,rule follower,101,1,1,2,1,0.625,high
113,6,5,1,0,0,1980,1,prototype,102,1,1,1,1,0.625,high
113,7,5,8,1,1,1329,1,prototype,103,2,2,2,2,0.625,high
113,8,5,7,1,1,2690,1,rule follower,104,2,2,1,2,0.625,high
113,9,5,4,1,1,2471,1,rule follower,105,2,1,2,2,0.625,high
113,10,5,3,0,0,1836,1,rule follower,106,2,1,1,1,0.625,high
113,11,5,1,0,0,1967,1,prototype,107,1,1,1,1,0.625,high
113,12,5,1,0,0,2156,1,prototype,108,1,1,1,1,0.625,high
113,13,5,5,1,1,1952,1,exception,109,1,2,1,2,0.625,high
113,14,5,6,0,1,2329,0,exception,110,1,2,2,1,0.625,high
113,15,5,3,0,0,2779,1,rule follower,111,2,1,1,1,0.625,high
113,16,5,8,1,1,1326,1,prototype,112,2,2,2,2,0.625,high
113,17,5,8,1,1,1786,1,prototype,113,2,2,2,2,0.625,high
113,18,5,5,1,1,2183,1,exception,114,1,2,1,2,0.625,high
113,19,5,8,1,1,2251,1,prototype,115,2,2,2,2,0.625,high
113,20,5,1,0,0,2776,1,prototype,116,1,1,1,1,0.625,high
113,21,5,8,1,1,2389,1,prototype,117,2,2,2,2,0.625,high
113,22,5,6,0,0,1374,1,exception,118,1,2,2,1,0.625,high
113,23,5,4,1,0,2499,0,rule follower,119,2,1,2,2,0.625,high
113,24,5,1,0,1,1952,0,prototype,120,1,1,1,1,0.625,high
113,1,6,1,0,0,1319,1,prototype,121,1,1,1,1,0.625,high
113,2,6,3,0,0,2123,1,rule follower,122,2,1,1,1,0.625,high
113,3,6,1,0,0,2187,1,prototype,123,1,1,1,1,0.625,high
113,4,6,1,0,0,2463,1,prototype,124,1,1,1,1,0.625,high
113,5,6,8,1,1,1757,1,prototype,125,2,2,2,2,0.625,high
113,6,6,5,1,1,1018,1,exception,126,1,2,1,2,0.625,high
113,7,6,2,0,1,2441,0,rule follower,127,1,1,2,1,0.625,high
113,8,6,8,1,1,2604,1,prototype,128,2,2,2,2,0.625,high
113,9,6,8,1,1,1827,1,prototype,129,2,2,2,2,0.625,high
113,10,6,8,1,1,1635,1,prototype,130,2,2,2,2,0.625,high
113,11,6,4,1,0,2045,0,rule follower,131,2,1,2,2,0.625,high
113,12,6,8,1,1,1409,1,prototype,132,2,2,2,2,0.625,high
113,13,6,4,1,1,1583,1,rule follower,133,2,1,2,2,0.625,high
113,14,6,5,1,0,1906,0,exception,134,1,2,1,2,0.625,high
113,15,6,1,0,0,2142,1,prototype,135,1,1,1,1,0.625,high
113,16,6,1,0,0,2654,1,prototype,136,1,1,1,1,0.625,high
113,17,6,7,1,1,1512,1,rule follower,137,2,2,1,2,0.625,high
113,18,6,6,0,0,1786,1,exception,138,1,2,2,1,0.625,high
113,19,6,8,1,0,1871,0,prototype,139,2,2,2,2,0.625,high
113,20,6,1,0,NA,NA,0,prototype,140,1,1,1,1,0.625,high
113,21,6,2,0,1,1845,0,rule follower,141,1,1,2,1,0.625,high
113,22,6,6,0,1,2303,0,exception,142,1,2,2,1,0.625,high
113,23,6,3,0,0,2594,1,rule follower,143,2,1,1,1,0.625,high
113,24,6,7,1,0,2157,0,rule follower,144,2,2,1,2,0.625,high
114,1,1,7,1,NA,NA,0,rule follower,1,2,2,1,2,0.75,high
114,2,1,1,0,NA,NA,0,prototype,2,1,1,1,1,0.75,high
114,3,1,8,1,NA,NA,0,prototype,3,2,2,2,2,0.75,high
114,4,1,8,1,NA,NA,0,prototype,4,2,2,2,2,0.75,high
114,5,1,4,1,NA,NA,0,rule follower,5,1,2,2,2,0.75,high
114,6,1,1,0,1,918,0,prototype,6,1,1,1,1,0.75,high
114,7,1,6,0,NA,NA,0,exception,7,2,1,2,1,0.75,high
114,8,1,1,0,NA,NA,0,prototype,8,1,1,1,1,0.75,high
114,9,1,8,1,NA,NA,0,prototype,9,2,2,2,2,0.75,high
114,10,1,1,0,NA,NA,0,prototype,10,1,1,1,1,0.75,high
114,11,1,3,0,NA,NA,0,rule follower,11,1,2,1,1,0.75,high
114,12,1,6,0,NA,NA,0,exception,12,2,1,2,1,0.75,high
114,13,1,1,0,NA,NA,0,prototype,13,1,1,1,1,0.75,high
114,14,1,7,1,1,1361,1,rule follower,14,2,2,1,2,0.75,high
114,15,1,1,0,0,1990,1,prototype,15,1,1,1,1,0.75,high
114,16,1,8,1,NA,NA,0,prototype,16,2,2,2,2,0.75,high
114,17,1,2,0,1,1663,0,rule follower,17,1,1,2,1,0.75,high
114,18,1,2,0,0,556,1,rule follower,18,1,1,2,1,0.75,high
114,19,1,8,1,1,1077,1,prototype,19,2,2,2,2,0.75,high
114,20,1,4,1,0,922,0,rule follower,20,1,2,2,2,0.75,high
114,21,1,8,1,1,545,1,prototype,21,2,2,2,2,0.75,high
114,22,1,5,1,1,659,1,exception,22,2,1,1,2,0.75,high
114,23,1,5,1,1,1118,1,exception,23,2,1,1,2,0.75,high
114,24,1,3,0,0,624,1,rule follower,24,1,2,1,1,0.75,high
114,1,2,7,1,1,1466,1,rule follower,25,2,2,1,2,0.75,high
114,2,2,1,0,0,543,1,prototype,26,1,1,1,1,0.75,high
114,3,2,2,0,0,925,1,rule follower,27,1,1,2,1,0.75,high
114,4,2,8,1,1,493,1,prototype,28,2,2,2,2,0.75,high
114,5,2,8,1,1,729,1,prototype,29,2,2,2,2,0.75,high
114,6,2,6,0,1,864,0,exception,30,2,1,2,1,0.75,high
114,7,2,1,0,0,1199,1,prototype,31,1,1,1,1,0.75,high
114,8,2,7,1,1,1229,1,rule follower,32,2,2,1,2,0.75,high
114,9,2,3,0,0,737,1,rule follower,33,1,2,1,1,0.75,high
114,10,2,8,1,1,1425,1,prototype,34,2,2,2,2,0.75,high
114,11,2,8,1,1,835,1,prototype,35,2,2,2,2,0.75,high
114,12,2,8,1,1,866,1,prototype,36,2,2,2,2,0.75,high
114,13,2,1,0,0,662,1,prototype,37,1,1,1,1,0.75,high
114,14,2,8,1,1,1010,1,prototype,38,2,2,2,2,0.75,high
114,15,2,5,1,1,1082,1,exception,39,2,1,1,2,0.75,high
114,16,2,4,1,0,660,0,rule follower,40,1,2,2,2,0.75,high
114,17,2,6,0,1,1001,0,exception,41,2,1,2,1,0.75,high
114,18,2,5,1,0,925,0,exception,42,2,1,1,2,0.75,high
114,19,2,2,0,0,1048,1,rule follower,43,1,1,2,1,0.75,high
114,20,2,4,1,0,1151,0,rule follower,44,1,2,2,2,0.75,high
114,21,2,3,0,0,1044,1,rule follower,45,1,2,1,1,0.75,high
114,22,2,1,0,0,1081,1,prototype,46,1,1,1,1,0.75,high
114,23,2,1,0,0,889,1,prototype,47,1,1,1,1,0.75,high
114,24,2,1,0,0,926,1,prototype,48,1,1,1,1,0.75,high
114,1,3,4,1,0,959,0,rule follower,49,1,2,2,2,0.75,high
114,2,3,1,0,0,856,1,prototype,50,1,1,1,1,0.75,high
114,3,3,6,0,1,1178,0,exception,51,2,1,2,1,0.75,high
114,4,3,8,1,1,968,1,prototype,52,2,2,2,2,0.75,high
114,5,3,3,0,1,1286,0,rule follower,53,1,2,1,1,0.75,high
114,6,3,8,1,1,1458,1,prototype,54,2,2,2,2,0.75,high
114,7,3,5,1,0,1067,0,exception,55,2,1,1,2,0.75,high
114,8,3,7,1,1,797,1,rule follower,56,2,2,1,2,0.75,high
114,9,3,8,1,1,910,1,prototype,57,2,2,2,2,0.75,high
114,10,3,8,1,1,1097,1,prototype,58,2,2,2,2,0.75,high
114,11,3,3,0,0,1214,1,rule follower,59,1,2,1,1,0.75,high
114,12,3,1,0,0,1247,1,prototype,60,1,1,1,1,0.75,high
