,sbj,runtrial,run,stimx,answer,response,rt,correct,type,trial,f1,f2,f3,c,endacc,learner,roi1,roi2,roi3,roi4,roi5,roi6,roi7,roi8,roi9,roi10,roi11,roi12,roi13,roi14,roi15,roi16,roi17,roi18,roi19,roi20,roi21,roi22,roi23,roi24,roi25,roi26,roi27,roi28,roi29,roi30,roi31,roi32,roi33,roi34,roi35,roi36,roi37,roi38,roi39,roi40,roi41,roi42,roi43,roi44,roi45,roi46,roi47,roi48,roi49,roi50,roi51,roi52,roi53,roi54,roi55,roi56,roi57,roi58,roi59,roi60,roi61,roi62,roi63,roi64,roi65,roi66,roi67,roi68,roi69,roi70,roi71,roi72,roi73,roi74,roi75,roi76,roi77,roi78,roi79,roi80,roi81,roi82,roi83,roi84,roi85,roi86,roi87,roi88,roi89,roi90,roi91,roi92,roi93,roi94,roi95,roi96,roi97,roi98,roi99,roi100,roi101,roi102,roi103,roi104,roi105,roi106,roi107,roi108
96,100,1,5,8,1,1.0,803.0,1,prototype,97,2,2,2,2,0.5,med,0.04100329402,-0.001554803843,0.143684487,0.050129711449999996,0.16064561759999998,0.1484964892,0.2968340628,0.010731390459999999,0.08613696621,-0.051512904410000004,0.05956868044,0.02413918908,0.07262514394,-0.02292019112,0.014833190780000002,-0.09219785321,0.21934832640000002,-0.147472118,0.020068987269999998,0.028989724110000004,0.1512346565,-0.05007606341,0.02276871339,0.125172273,0.002524891441,0.0075495557270000005,-0.09950063188,0.03090035115,0.007286558643999999,-0.058120751820000004,0.00795822034,-0.03629606363,-0.1202814074,0.017003913080000002,0.1569307679,0.1957725091,0.03967735092,-0.01556245246,0.0805317954,0.1364439394,0.009596364821,-0.004230903023,0.04799262375,-0.14893174539999998,-0.2709495757,-0.1077502691,-0.1173840979,0.01427454314,0.03787371889,0.01282474037,0.046849766900000006,0.02159568926,-0.051175903110000004,0.2024165097,-0.02038850472,0.2591460482,0.09678516947999999,0.2178856828,0.1331171667,0.08840870061,-0.003715503528,0.03521579304,0.04804354694,0.09536301517000001,-0.05233415323,-0.06592684481000001,0.01457350449,0.001637125667,0.1934757239,0.041994548939999994,0.1931772279,-0.04423845928,0.0830459341,0.01042611458,0.07197508378999999,0.06425652501,-0.07651067578,-0.034035328989999995,-0.01492227256,0.0120357758,-0.1446534934,-0.1993348411,-0.09732961277,-0.11737085970000001,-0.2169920271,-0.09105191524,0.07138943857999999,0.2005073628,0.03382275085,0.0379862418,0.1188131086,-0.021112532090000004,-0.27689587239999996,-0.12384148019999999,-0.3609517939,0.01147490879,-0.051659855920000004,0.01200027787,-0.04769264739,0.1020063701,0.00021466305349999998,-0.1743110043,-0.01984301038,-0.1046055665,0.03124743192,0.06736801937,0.08826318807,0.005203425047
97,100,2,5,3,0,0.0,1080.0,1,rule follower,98,1,1,2,1,0.5,med,0.3451808871,0.4577052262,0.34301962950000003,0.269397967,0.1180803726,-0.01105784997,-0.009168825323,-0.03439790771,0.02198664665,0.016792430259999998,-0.0047838349579999995,-0.02804558026,0.01728075101,0.06915973955,0.104232983,-0.01120763375,-0.18787527140000002,-0.1543415011,-0.06411783781000001,-0.1181316102,0.10093484960000002,-0.0340145937,-0.049688419850000005,0.050483897039999996,-0.07893623676,-0.017251969340000003,-0.06276599844,-0.055449824470000006,-0.06885136917000001,-0.0161443295,-0.1097547667,-0.1018116663,0.02920759668,-0.1368097792,-0.3031754994,-0.1455289493,-0.1458416655,-0.05326236325,-0.2829509678,-0.1969648616,-0.09644165737,-0.02167891202,-0.07893216169,-0.12976036529999999,-0.09867588831,-0.1410429608,-0.165538804,-0.2441684187,-0.03143151481,0.03827143276,0.1967294499,0.26963064940000003,0.17073200100000002,0.30842284579999996,0.057338235099999996,0.1603259882,-0.1175494718,-0.052557860430000006,-0.05494789901,0.05108294075,0.028468912510000003,-0.006724814704,0.008809909845,-0.07083753057999999,0.08540793111,0.07506657796,-0.05471321911,-0.009571081674,-0.028998719580000002,-0.058535472139999996,0.015574584219999998,0.049194093030000004,-0.02763146151,-0.017241969019999998,0.220134611,-0.05743023319,-0.046040562460000004,-0.02111062685,-0.019015601719999997,0.021470618880000004,0.09184374738,0.0178832106,0.02670680614,-0.10208282630000001,-0.08161752298,-0.1060654624,-0.09358257662000001,-0.0033262293430000004,-0.006940746405,-0.05206438922,-0.07379809635,-0.115040688,-0.09996560857,-0.17241531440000002,0.044826710830000005,-0.1543271007,0.001729384063,-0.056171171510000006,-0.0796461616,0.05631393775,-0.07721419096,0.06787767495,-0.0006756999287,-0.06584407009,-0.028067062599999998,-0.01124716149,-0.036929920510000006,-0.025933697940000004
98,100,3,5,5,1,1.0,634.0,1,exception,99,1,2,1,2,0.5,med,0.1235379168,0.2207440273,0.178594682,0.01881606204,-0.004835124601,-0.12496330800000001,-0.1193678356,-0.1535907762,-0.02670008806,0.07206059454,0.11073310230000001,0.0038715247460000004,0.08070627482,0.20468740800000002,0.059858300360000005,0.1053669617,-0.059148697289999996,-0.1133325519,-0.09592687536,-0.03509005733,-0.02148311787,-0.06868136702000001,-0.044095082710000004,0.05389886337,-0.08695893685,-0.04350257671,0.013729565259999998,-0.01752516483,-0.06450797592999999,0.168644303,0.210608832,0.08215099345,0.1762637164,-0.08908816642999999,0.1002797949,-0.06042939901,0.12021189539999999,0.06315188038,-0.02543516901,-0.2518718066,-0.06375629044,0.07105284206,-0.009707391606,-0.2113493498,0.09535724625,-0.124818938,0.11574055679999999,-0.027186274310000005,0.008687606213,0.19126257010000003,0.013238323940000001,0.137197293,0.1338437428,-0.05003563528,-0.08156852986,-0.1426259537,-0.16135504679999998,-0.017950754130000003,-0.004427421701,0.044509997360000005,0.07396590928999999,0.051000354010000006,0.09324560224999999,0.2645831827,0.1429150619,0.060251227350000006,0.21481734379999998,0.07364665489,-0.028076295180000002,0.06591920714999999,-0.07304479444,0.004742621317,0.023014307230000003,0.0004426971965,-0.029987881960000004,-0.07075939378,0.07182313397000001,-0.07233225187,-0.008649181433,0.13643080789999998,0.2887871971,0.1448338079,0.141610472,0.1482985688,0.12168258800000001,0.07269612326000001,0.08704344825999999,0.2260659061,-0.1658689799,0.10068561179999999,-0.04316224187,-0.19248187149999998,-0.1387086439,0.05176695345,0.12264780300000001,-0.09057399817,-0.02205095284,0.015992854219999998,0.1109425126,-0.07112152492000001,0.03054693317,0.07691171198,0.01875154595,0.08869969053,-0.0071518529469999995,0.023549442819999995,-0.02304130151,-0.026561516809999998
99,100,4,5,1,0,0.0,650.0,1,prototype,100,1,1,1,1,0.5,med,0.016938156930000003,0.0668710898,-0.1092088001,-0.1189598559,-0.07505563242,-0.12925439589999999,-0.1835295981,-0.027213351919999997,0.10246685109999999,-0.0413132616,-0.0552055378,0.08296856475,0.146923582,-0.06261975764,-0.005878984942,-0.1151121013,0.1062892156,-0.03383973042,-0.02124480251,0.0588852862,0.01218094804,-0.007197183811,-0.049210415650000006,-0.1248890107,0.07065269063999999,0.024835122830000004,-0.09764509734999999,-0.03815002459,0.07350820551,-0.04457727142,-0.02073142108,-0.08194485404,-0.05396097205,-0.009663863384999999,-0.2240497704,-0.016578783380000003,0.017486475459999998,0.014850117880000001,0.053483422460000006,0.002913460045,0.07959042507,0.1523361897,-0.04691191326,0.1280294344,0.031810780719999994,0.05512262413,0.06561503932,-0.0851933324,-0.02260837497,0.09429291287000001,-0.05981086532,0.1332624517,-0.2353138102,-0.15764513970000002,-0.09684821644,-0.2070400064,0.1515990439,0.14579528619999998,0.1132316738,0.0366378406,-0.1150546745,-0.046097531409999996,0.1508454052,0.06911393615,-0.05419042514,-0.17720923989999998,-0.10089015550000001,0.08183711602,-0.02908259788,-0.06948590374,0.030761204219999998,-0.06357794747,-0.0114374801,-0.04687937983,-0.1558524177,-0.08849423782,-0.10598568289999999,-0.06874609061,-0.022460966290000002,0.05612710747000001,-0.1384535856,-0.1353745609,-0.001113838927,-0.03167130332,0.00990390373,-0.07517861096,0.09460848758,-0.11142256539999999,0.1545865113,-0.008500033021,0.0405720223,-0.05659179975,0.1248523959,-0.01959444086,0.07451876302999999,-0.1402343778,0.06525295702,0.030262914789999998,-0.012421477390000001,-0.05125050585,-0.06808514662000001,-0.07234692996,-0.06693566812000001,0.01340633127,-0.03328500584,0.08998462653999999,-0.1463903686,-0.01695525238
100,100,5,5,1,0,0.0,820.0,1,prototype,101,1,1,1,1,0.5,med,0.20567147489999998,0.20322346170000002,0.4539106014,0.5520689794,0.356745415,0.5609995063000001,0.5608686447,0.001266266709,-0.11668539019999999,0.1243064198,0.013619510230000001,0.038755907410000005,-0.03851435291,0.0333350283,0.19458892949999998,0.23429719219999998,0.20367428989999997,-0.04410779631,0.08590661747000002,0.03577651826,0.2030403156,0.0763475289,0.102809676,0.0754748882,-0.1243452712,-0.08842536647,0.03184188649,-0.0387069135,-0.08763476528999999,-0.07420945429999999,0.05941997835,0.08067404552,0.07844313001,-0.1321119734,0.23031286210000002,0.311316052,-0.029145615120000003,-0.211704767,-0.13551785560000001,-0.06495574471,-0.07583213242,-0.271372345,-0.20044020420000003,-0.44098011979999996,-0.5033382375,-0.2162529773,-0.4252133186,-0.01664814978,0.02505613975,-0.09488658050000001,0.2240586518,0.12018689800000001,0.3552192769,0.44134293420000004,0.3340332534,0.4998317378,0.08385759699,0.0001997671096,0.1389567594,-0.08747123960000001,0.1605291844,0.1537729568,-0.06739176166000001,0.009734060028,0.1258058807,0.09539339393999999,0.2626522241,0.1051413792,0.2573172653,0.208679057,0.23651429489999998,0.1744348101,0.1540475503,0.12464353939999999,0.11418009529999999,0.01409580754,0.05026115747,-0.05260428382,-0.028805487680000002,0.08211097251,0.07252230129,-0.04121043417,-0.15108327,-0.5002032562,-0.3717331864,-0.1300717271,-0.06403654174,0.2211807454,-0.3254367959,-0.1743653876,-0.07261734068,-0.11818905539999999,-0.5343426519,-0.1429112344,-0.37785045289999997,0.1010886631,0.01780348342,0.02491255518,-0.1115594699,0.1155667151,0.08272957493,0.015177271909999998,-0.02751985078,0.045700566320000004,0.0710329993,0.020596056459999998,-0.052881895549999995,0.08785454779999999
101,100,6,5,4,1,0.0,1195.0,0,rule follower,102,2,1,2,2,0.5,med,-0.1343940569,-0.13119037449999998,-0.1101269648,-0.2851024435,-0.08991744697000001,-0.3025568577,-0.2924737046,-0.1452388288,-0.06753421228999999,-0.00971720811,0.00587272739,-0.13990361710000002,-0.2224148985,0.030602577939999997,-0.06720695883,-0.1013604159,-0.171403158,-0.045666009730000005,-0.2344457648,-0.12864695,-0.06738831204,-0.08905872641000001,-0.1417021919,0.06305175687999999,-0.22812826079999998,0.07082797897000001,-0.015357278700000001,0.1380733877,0.04453011279,0.17555577420000001,0.1352216217,0.09639752310000001,-0.07717916248,0.14119121380000002,0.2777063687,0.047900924330000004,0.19979242460000002,0.2241818745,0.22992206329999998,0.18573600850000002,0.1241704398,0.24062779550000002,0.3833149388,0.1472130716,0.3506705422,0.03085032381,0.2613369329,0.137049405,0.0784891219,0.004676275743,-0.1124108396,-0.1289579722,-0.19417283170000002,-0.1432542005,-0.1432527819,-0.3119020113,-0.17648694550000002,-0.01899638401,-0.024483919309999998,-0.02333287247,0.04648427675,0.03086078187,-0.03971421473,-0.1460728759,-0.09629630166000001,0.1198995791,0.01302190928,-0.0505851053,-0.1675137842,-0.09096701162000001,-0.2694649191,-0.1697288268,0.010654457140000002,-0.2674400319,-0.03536625273,-0.06515486944,-0.014067684019999997,0.06853235066,0.03696711899,0.03850355606,0.07898243592,-0.09105705383,0.166250158,0.3154142435,0.09801104727,0.112723932,0.2058165548,0.2310420226,0.07426698702000001,0.1635162391,0.1189656464,0.05376832631,0.0246206325,0.1261863521,0.08084168788,0.08249296802,0.01082159602,0.042233011359999996,0.02269867932,0.011469389080000001,-0.02847500035,0.06913621743,-0.059050773310000006,-0.003188435633,0.07113491125,0.01635068994,0.07178074031000001,-0.0605081121
102,100,7,5,1,0,0.0,790.0,1,prototype,103,1,1,1,1,0.5,med,0.01918596735,-0.3438960787,0.242194751,0.1223019713,0.2639333054,0.453396504,0.4543920121,-0.12146866099999999,0.06474941548999999,0.03769445842,0.06040684624,0.01848274207,0.04147895171,0.023360920440000002,0.06018691789,-0.005266954384,0.2176276852,-0.170870406,-0.0009943889359,0.1045758892,0.1228084468,0.038781282589999994,-0.031030723450000002,0.1602387446,-0.025978640159999997,-0.05810364566000001,0.02407140447,-0.03689058274,-0.03141666587,-0.1663684319,-0.005304235381,0.0132128634,0.002012031551,0.005034418345,0.13449614210000002,0.3803235744,0.07508173325,-0.20000498530000002,0.005208682959,-0.03491198747,-0.06082537601,-0.1578604396,-0.08244212027,-0.3796057679,-0.2776941712,-0.1499756531,-0.34966262810000004,-0.10987236869999999,-0.012946042659999999,-0.03418287228,0.0198416222,-0.2403490065,-0.2464782277,0.4082377996,0.36537770729999997,0.36078399130000005,0.08811949548,0.150194334,0.09298949499,0.12691958960000002,0.06910078032,0.09354726355000001,0.010735828880000001,-0.06658642391,-0.07413087438999999,-0.1596130186,-0.0436181579,-0.027337932000000002,0.3617552132,0.09187926733999999,0.08189684305,-0.025329231839999997,0.21248339230000002,0.08203879749,-0.09001953417000001,-0.021258203700000002,0.030846470110000003,-0.05608904494,-0.054663560800000004,0.016438977809999998,-0.1596470069,-0.2224491426,-0.2218775312,-0.437980802,-0.4359455551,-0.1532028722,-0.007320608547,0.17632771940000003,-0.1346700396,-0.23147189210000002,-0.06317636522,-0.13673260310000002,-0.4560696507,-0.22079737149999998,-0.3567776413,0.01688391289,-0.01149628249,0.021769066099999998,-0.07633847477000001,0.1575091594,-0.036628378239999995,-0.2028101898,-0.1118203564,-0.010155278309999998,0.006196067721,0.125964204,0.06452729249,-0.01846720778
103,100,8,5,1,0,0.0,645.0,1,prototype,104,1,1,1,1,0.5,med,0.1728617212,0.2095717174,0.3103092574,0.1063663941,0.1531737184,0.027731648589999998,0.12605721890000002,0.608273916,-0.04347634159,0.08333377286,-0.04234167113,0.1102635135,-0.14297240349999998,-0.05103854,0.25322884489999997,-0.05946633916,0.05628610175,0.4177523247,0.2669142239,-0.01591104295,0.06755966961,-0.014806141450000001,0.044714128719999996,-0.09610562749,-0.1781377251,-0.09421089886,-0.1444153218,0.05889679357999999,0.002458601721,0.02405553647,-0.0866299417,-0.08087276154,-0.1278999861,-0.1163717591,-0.07008978973999999,-0.06185212364,-0.004872964818,-0.1236420839,-0.1164060544,-0.1016367258,0.001337925042,-0.0009464450985,-0.014867683159999999,-0.08604018854,-0.02359514452,-0.05307405421,0.09873241677000001,-0.05281972143,0.005290715968000001,-0.06613885079,0.031388886569999996,0.25972327219999997,-0.01624148824,0.04346753137,-0.08547764207999999,-0.03712375697,-0.2147065318,-0.0678063036,-0.05430561709,-0.10143108890000001,-0.062314429629999994,-0.1143159057,-0.06001423381,-0.169497363,-0.1781734348,0.04913960804,-0.1415712148,0.08512716512,-0.03419703091,-0.01904225654,0.08008616785,0.06500806347,-0.08162297824,-0.13858417539999998,0.07244832294,-0.03402830975,-0.038144066160000004,0.05248940118,-0.02429930148,-0.035797291339999995,0.03464906682,-0.01674716768,0.02454574862,0.1718584288,0.2336709954,-0.02998948897,-0.1109083709,0.00046799062360000003,0.1551271277,0.008018913677,-0.08627454722000001,-0.11703260900000001,0.03786983648,0.06872585995,0.09847640016,-0.03994182244,-0.013235757190000001,-0.025807614109999998,-0.011720193590000002,-0.03044572947,-0.05247455931,0.05121927131,-0.06493986263,0.0013768057199999998,0.01420570255,0.0004952320934,0.002523105639,-0.030482006699999998
104,100,9,5,6,0,1.0,732.0,0,exception,105,2,2,1,1,0.5,med,0.18024279989999997,0.4689507895,0.33477539440000004,0.18398797050000001,-0.013613183700000002,-0.031781288250000005,-0.05371241802999999,0.04756432648,0.2223403933,-0.014236634430000002,0.0023493498629999997,0.1995581234,0.2976248368,-0.1097611508,0.1423173114,-0.1024486166,0.09029408621,-0.22367669,0.14304380390000002,0.042195168539999994,0.09672761904999999,-0.07664179149,0.1195606156,-0.04307449265,0.2378679724,0.07573964586,-0.1260865077,-0.12130806300000001,-0.026846619649999997,-0.11798446060000001,-0.1856335709,-0.22642781829999997,-0.1582565737,-0.18460735239999998,-0.3131164423,-0.08913792794,-0.2100109174,0.021303462819999997,-0.1600627601,-0.20779671,-0.027753386510000002,-0.08432249242,-0.25996161170000004,0.03098108287,-0.05918564818,-0.04933935783,-0.17624372289999998,-0.328769885,-0.03322761171,0.03363117501,0.1768789416,0.3968314676,0.13019886619999999,-0.025242990330000003,-0.0352071569,0.03145747556,0.3865462028,0.129675123,0.2400112623,0.1970569671,-0.01984566494,0.04185137816,0.3318843265,0.3278812498,0.06410619447,-0.08274704039,-0.025582137119999997,0.1004245236,0.1538039655,0.0031007177669999998,0.344460184,-0.0007529760942999999,0.003564236031,0.1849084226,-0.06078924211,-0.02028291936,-0.10756813960000002,-0.151462428,-0.021311890409999996,-0.015427462759999998,-0.12037270289999999,-0.05999952893999999,-0.09837409342,0.007951853037,-0.029899191560000003,-0.1187257573,-0.057540606079999994,-0.21031394890000002,-0.03982805874,-0.053748656660000005,-0.07245991771,-0.18033208550000002,0.007101308678999999,0.016302385569999998,-0.05147501529,-0.2028916323,-0.04042399827,-0.1305589916,-0.031748119049999995,-0.01575287108,-0.03318905803,0.06473396249,0.22889090129999998,-0.01759990664,-0.1867153135,-0.005937436618,-0.19372553809999998,0.007025569015
105,100,10,5,5,1,1.0,738.0,1,exception,106,1,2,1,2,0.5,med,0.2401375644,0.3343567205,0.4293023547,0.2566521099,0.1494730789,0.1860123941,0.1726541386,0.05211028324,0.002594830151,-0.045591570149999996,0.025546469369999998,-0.0521143912,-0.2166517766,-0.1221384301,0.01964158622,-0.09764494284,-0.11413818939999999,0.1608778947,0.023878656260000002,-0.07131246118,-0.09605838967000001,-0.09272616814,0.0784683436,0.04883941462,-0.10113889460000001,0.107649571,0.02533200241,0.04306059846,0.004910431321,-0.04874498449,-0.08039866362,0.1271463888,-0.08254017877,0.0035169125,-0.04546232499,-0.08272603848,0.1467990836,0.016998325800000002,0.01473783273,0.09058030484999999,-0.03575627425,-0.1509854105,-0.1088584774,-0.09206863277999999,0.04460554128000001,-0.003205214622,-0.0623793958,0.02670111221,-0.044339923610000005,-0.11050869039999998,0.2178730117,0.19722301539999998,0.06558321334,0.30812179230000003,0.17156442579999998,0.2445028299,-0.04042980712,-0.20696363739999998,-0.07938593634999999,-0.01221691044,-0.049662491569999995,-0.020934968480000003,-0.1812372943,-0.1719200577,-0.03041501622,-0.1338037293,-0.052065981069999996,-0.1298190585,0.058641907039999996,-0.07986732299,0.05226108409,-0.06540577037999999,-0.0475911655,-0.01190691254,-0.04597675275,0.062033465610000005,0.02157306498,0.031582976119999995,-0.029425676319999997,-0.02503626786,-0.02146599577,-0.05953160019999999,-0.06777009161,-0.0027292003200000002,-0.05898206065,-0.08253310057,-0.022909948680000004,0.17092767050000002,-0.1532417072,0.0019346768109999998,-0.07062577,0.01185195658,-0.14054581130000002,-0.06569504978999999,-0.2016727096,0.030262972389999997,-0.04062790334,-0.04300618147,-0.05028175402,0.07695163678,-0.03736058097,-0.035506435249999996,0.03353320422,-0.048088345989999996,-0.03187099765,-0.01588129916,0.12783429640000002,-0.07590408572
106,100,11,5,6,0,1.0,858.0,0,exception,107,2,2,1,1,0.5,med,-0.05418526123,-0.2137596703,-0.01370857371,-0.07666757783,0.20962796120000002,0.07412680701,0.05272992517,-0.17826210879999999,0.043449778679999995,0.06974462958,0.1476098354,0.1064991364,0.016936145769999997,0.0519750307,0.013369136929999999,-0.058884480870000006,-0.0326286618,-0.3078653651,0.02429237267,-0.014610274480000001,0.2372222556,0.01623992477,0.01997984174,0.123352895,-0.09422716793,-0.1825383145,-0.004461012867,-0.0798771474,-0.01668215791,0.04185937879,-0.01908408862,-0.06747224205,-0.01270412583,-0.1329054841,0.1065321177,0.1742710893,-0.009547065197,-0.109534949,-0.06178686505,-0.09292210987999999,-0.07812788946,-0.10668523519999999,-0.06678255791,-0.3120697968,-0.32547175899999997,-0.1757593424,-0.1868681266,0.05126930994,0.08931856412,0.08444492612,-0.033767624419999996,-0.1717176967,-0.2359896011,0.1350321848,0.09762843737,0.0617887701,-0.04151624742,-0.113933931,0.024732987740000004,0.06247521835,0.09453939246,0.1705558183,0.18188754070000002,0.12416174099999999,-0.1369834985,0.1932647975,-0.1043801475,-0.1318218535,0.1399597957,-0.06312871347999999,0.1988495837,0.1108768524,0.0894245738,-0.02316894385,0.22765585870000002,-0.04508609884,0.0234507873,0.008406595490000002,0.002410010366,0.059454544299999995,0.07335824951,-0.09382240402999999,-0.029318192799999997,0.05239469098999999,-0.2092248287,-0.0423243182,0.06475373503,0.3061720926,0.036061743650000005,0.023422722620000003,0.05725311422999999,-0.1805955574,-0.196045708,-0.08838750744999999,0.002495149975,0.01588755755,-0.018247689350000002,-0.05679189591,-0.0814839307,0.144792877,-0.024450514750000003,-0.186482326,-0.09935741858,-0.0405573118,-0.006281981344,-0.04038132569,-0.04576226034,-0.023819640330000003
107,100,12,5,3,0,0.0,761.0,1,rule follower,108,1,1,2,1,0.5,med,-0.001791084839,0.1407229361,0.05038421769,0.02637664667,-0.01614340096,-0.01530105875,-0.02494707665,0.039859897660000004,-0.0298136826,-0.024392732990000002,-0.06161394351,-0.053212786100000006,-0.06137633426,-0.008126551057,0.08336594815000001,0.028971290930000004,0.0763673448,-0.08516949236,-0.022265925409999998,-0.1150493617,0.05224538243,-0.005269681829999999,-0.09059811641000001,-0.07401302257999999,-0.24646691969999998,-0.08257884258999999,-0.1148556297,0.1085640012,-0.000159127098,0.012384797549999998,0.17975191399999998,-0.021804806180000004,-0.1373948089,0.10952364980000001,0.01711202114,0.1095193973,-0.0165354398,-0.08283179392000001,-0.008443339257,0.07180846575000001,0.015250535619999998,0.09538576812999999,0.12096290970000001,-0.02764477963,-0.1426769202,-0.05543445156000001,-0.05999962584,-0.1362637901,-0.07741519162,-0.2337579061,-0.006734875161,0.1000602969,-0.08192355632000001,0.053112390610000004,0.032302009869999995,0.017335885290000002,-0.1508160543,0.1040142741,0.1164089535,-0.06244452206,-0.008755411088,-0.013919772090000001,-0.1291325225,-0.1094963734,-0.1112696552,-0.01845685122,0.020618768180000004,0.047068401399999994,0.01317401195,0.1058302632,-0.1604683902,-0.030697661150000003,0.06846385619,-0.07518177497,0.09733632181,0.013624440759999999,-0.03575027943,0.08559586183000001,0.022595621519999998,0.08178419356000001,-0.012331472250000001,-0.1504160042,0.09110149426000001,-0.180805443,0.08084861443,0.0835515817,-0.05839504674,0.08890811491,0.3466261349,-0.03190956747,-0.004705079494,0.07768693645,-0.06042570734,-0.010590884350000001,-0.04574931954,-0.02690086498,0.04714345197,-0.05622290869,-0.03534638938,-0.1229903781,0.0006565952888,0.04608603713000001,-0.08666228583999999,0.003820051643,0.053893371739999994,0.126323514,0.04824118871,0.04061954673
108,100,13,5,2,0,0.0,682.0,1,rule follower,109,2,1,1,1,0.5,med,0.2105133966,0.44013307960000003,0.35818129439999996,0.2677366936,0.01753678642,0.09338472208999998,0.2019839668,0.002739993075,-0.002994987607,0.01762238227,-0.045542542180000006,0.039767672080000004,-0.027034965689999996,0.028846039480000002,0.1548193708,0.04235518171,0.178812673,0.1038548564,0.0165876811,0.03911913411,0.1321833209,0.08504068118,0.037164754019999996,-0.06752166254,-0.08610634557,0.06277179526,-0.06442869589,0.1386685202,0.028736686600000002,-0.1575744111,0.02619632597,0.052722189759999996,0.02032058083,-0.007038783913,0.05187342344,-0.029821607660000003,0.058235616610000006,-0.3234579521,0.07941075402,0.1578528539,-0.01869830676,0.054316334820000006,-0.1621102361,0.03726748729,-0.1763675026,0.0029779422869999996,-0.06857775035000001,0.01428015867,-0.06398143355000001,0.06631107317000001,0.1379063326,0.37088731070000003,0.17793679280000002,0.05971496328,0.01752577895,0.1856471381,0.1663857882,0.059095624560000004,0.04390737403,-0.09252829561,-0.01445088826,-0.019840380419999998,-0.025859604419999998,-0.048477459529999996,0.1399251132,-0.1619959833,-0.05509903893999999,0.1840686583,0.1519502332,-0.02879124,0.2174540727,-0.011139898700000001,-0.03200175508999999,-0.10496192439999999,-0.2949782249,-0.1712661756,-0.2190858818,-0.036237169619999995,-0.03282106169,-0.03337369392,-0.10223161,-0.043883729850000004,-0.2269084347,-0.6668869393,-0.5532429959,-0.35780891369999995,-0.07523724172,-0.08327868391,-0.4232592718,-0.5828332865,-0.08415811909,-0.09033192317,-0.3509907049,-0.06718121893,-0.23508612489999997,0.001167844365,-0.044255196969999994,-0.03400188934,-0.1629317853,-0.011055680679999999,-0.04155019214,0.14243308119999998,-0.08104272498,-0.0275857633,0.0643719775,0.1048050844,0.08392004166000001,-0.03189128653
109,100,14,5,2,0,0.0,972.0,1,rule follower,110,2,1,1,1,0.5,med,0.2346683674,0.446312043,0.226921835,0.2339358456,0.1449649945,0.1368246867,0.1449122699,-0.08098459031000001,0.130713322,-0.05934026806,0.041072554889999995,0.05741516664,0.251381657,0.20990196789999999,0.17567656980000002,0.03950732527,-0.1266869835,-0.165331435,0.0668155592,-0.005283839728,0.1336426414,-0.09513211455000001,0.1257618785,0.038522713560000005,0.21026061070000002,-0.17705424399999997,-0.002151703948,-0.105441867,0.009413682068000001,-0.011406747279999999,0.1360432916,-0.12593988679999998,0.1259148776,-0.1870314527,-0.052422180039999995,-0.09787365457000001,-0.08218600297,-0.1528312548,-0.07855760369,-0.2533997933,-0.06612432622,0.03559146124,-0.15112846359999998,-0.29973144809999996,-0.2314953031,-0.1243826453,-0.18640766190000002,-0.14409960619999998,0.029536471060000003,0.23433031170000002,0.2959341585,0.2149528773,0.26828635489999997,0.2369822953,0.05168618082,0.18805859239999997,0.0569046636,0.03078439006,-0.04857749248,0.14448848179999998,-0.04582889499,-0.02732655684,0.1122890056,0.4234585643,0.1446783918,0.01413052697,0.001594793909,-0.08736711565,0.04147847507,-0.07729838974,0.11552548509999999,0.0418793704,-0.06471497195,0.1068312455,-0.06283564867000001,-0.3090039322,-0.18449464,-0.22336204440000001,0.005046289359,-0.02743900373,-0.1255465396,-0.03385643292,-0.036570415239999994,-0.4924350587,-0.354193763,-0.38110859840000005,-0.2051065089,-0.1381654517,-0.219297383,-0.4659062629,-0.2137016956,-0.48591919759999996,-0.4675010898,-0.12336751900000001,0.04560932811000001,-0.07069605597999999,-0.005442601871,-0.08015989362,0.08052172132999999,0.027484268510000003,0.01072388616,0.09201741181,-0.009566686162,-0.06672597295,-0.020144933400000002,-0.1151078472,-0.2955523404,-0.023822925699999997
110,100,15,5,1,0,0.0,765.0,1,prototype,111,1,1,1,1,0.5,med,0.07361346173,-0.1284320487,0.05293541248,-0.037661744889999994,0.1302315299,0.07654402232999999,0.08284455532,0.02226766739,-0.0322547747,0.1460789169,0.039381304080000006,0.07010769349,-0.257392616,-0.006543407896,-0.003299814465,-0.06623793692,0.2282472407,0.03550142712,0.01690832013,-0.04062225088,0.1213778943,-0.023976051090000002,-0.040863550330000005,0.1904859572,-0.18571941890000002,-0.1402008678,-0.05372459614,-0.05278810558,0.005837995156000001,0.09849791692,0.05524586163,-0.0017325191209999998,-0.005675325592,-0.08424480050000001,0.1095189826,0.09379730202,0.10248696550000001,0.023037822000000003,-0.02549759465,-0.26138158370000003,0.012904917560000001,0.05988446039,0.1079202735,-0.2103202988,0.09067756952,-0.028505726139999996,0.07028684581,0.047854951119999996,-0.010446854399999999,-0.04894445434999999,-0.018931536369999998,-0.13462398650000001,-0.08698699497000001,0.09627311899,-0.030558054089999998,-0.054364633899999994,-0.1780785318,0.0785032386,0.13248139999999997,0.045928897659999995,0.11680578330000001,0.09218495381000001,0.01020896057,-0.3090198826,-0.07934381739,0.031141448999999998,0.09079053121,0.1699900491,0.024363697819999995,0.07381536451000001,0.11989292539999999,0.1094572783,0.1617709657,-0.02851678853,0.2740033831,0.044625462879999994,0.10194260720000001,0.0773392104,0.0015483107870000001,0.17765362420000003,0.09361025992000001,-0.026323755860000003,0.07701352948,0.2521430359,0.2651155254,0.22642233309999998,0.1797419184,0.3139834922,0.22596496010000003,0.2116605305,0.04221182627,-0.002022156744,-0.022616296409999997,0.09784701822000001,0.05032935637,-0.01734752932,0.0699473945,-0.05887888561000001,-0.06097002637,0.05873919826,-0.027453407189999994,-0.010352084990000001,0.030312387789999996,0.03660064559,-0.02710059478,0.01058715804,0.02938215167,-0.045300041129999996
111,100,16,5,8,1,1.0,645.0,1,prototype,112,2,2,2,2,0.5,med,0.1101506991,0.04114780865,0.38331569880000005,0.24382493670000002,0.1508563308,0.1243917065,0.1373673175,-0.1233971727,-0.07943466406000001,0.05216877515,0.038032336949999995,-0.06581578304999999,-0.1464474864,0.005804980265000001,0.1128746032,0.150598675,-0.09234981200999999,0.11642449869999999,-0.1222241934,0.06063917171,0.007314996576,-0.035578648760000005,0.01510556029,0.048955844580000005,-0.2129639171,0.011340903959999999,-0.011193409579999999,-0.1360207576,0.00615324316,0.01035427075,0.003562420641,-0.08890770620999999,-0.051265052289999995,-0.08850974476,0.03618748544,0.1197133848,0.09234758985,0.06008717257,-0.05249797049,-0.1218480032,0.02788669421,0.0013193058619999998,-0.07314231666,-0.02105114238,0.02320938787,0.006239745279,-0.059149430360000005,-0.19550946100000002,-0.0096433123,-0.06414551072,0.1055817408,0.12460576570000001,0.09559896844,0.3021342979,0.09155755119999999,0.1619317537,0.0131494456,-0.02671921895,0.03492513533,0.012328885190000001,-0.007037114242999999,-0.0444664449,-0.1027999318,-0.08806210463,0.04073830419,-0.009376290302999999,0.154129096,0.1509707925,-0.02114296994,0.1007847339,0.03378159483,-0.03548759658,0.0284816829,-0.04936579898,0.1090773994,0.0198791435,0.05823655081,-0.06268268637999999,-0.00039250491010000004,0.1526072164,0.02241217541,0.01857265366,0.06055316487000001,0.1636181953,0.08132471702,-0.035029350089999994,-0.01073205013,0.1313768123,0.09082935307,0.07356593149,0.045309484969999994,-0.1132220511,0.02681021144,0.02317502585,-0.026432911719999997,-0.0580678721,-0.09246733875,0.021340617080000002,0.02637269673,0.08379567358,-0.1160962264,-0.019111169030000003,-0.022565892999999997,-0.07007340778,-0.06320594129,0.1227162858,0.009833625315,-0.047188535530000006
112,100,17,5,8,1,1.0,673.0,1,prototype,113,2,2,2,2,0.5,med,0.1042996118,0.18504808620000002,0.5312566983,0.5906172794,0.2069680911,0.2507704262,0.5141717370000001,-0.07129727966,0.01949850178,-0.06096286109,-0.02170187531,0.025153741809999998,0.2169692121,-0.01869382214,0.2215089874,0.1519876551,0.3069856115,-0.03677884209,0.1663216781,-0.0060762507680000005,0.031083782810000005,-0.1174251578,-0.0949646752,0.038124260560000005,-0.10060280449999999,-0.03961120011,-0.11050465400000001,-0.101507258,-0.01495501313,-0.1751694162,-0.1583070907,-0.159487842,-0.1435451871,-0.20907325440000002,-0.06809992425,-0.0018543233240000002,-0.0873278246,-0.1688941841,-0.1845059528,-0.09677492781,-0.04120494988,-0.1446142634,-0.18719682280000002,-0.1938929925,-0.3087237932,-0.1391701306,-0.3188166696,-0.14580898960000002,-0.02122527602,-0.09173271542000001,0.20787454149999998,0.03160939681,0.3258326352,0.3181493292,0.2596527557,0.4985904643,0.09775939573999999,0.062027940370000006,0.1611255811,0.029745861289999998,-0.00880629097,0.05681072926,0.06006195426,0.06657800188999999,0.2041741578,-0.05215057774,0.07577602043,0.2295236578,0.34848105770000004,-0.01665753894,0.215150342,-0.0375304356,0.06404392955,-0.03385825758,-0.0816437709,0.013892977619999998,-0.1659372002,-0.09023435662000001,-0.041475363769999996,0.06280023680999999,-0.1616542245,-0.1310014111,-0.12212488519999999,-0.3543297367,-0.3338521846,-0.2276505118,-0.03457928607,-0.05727165176,-0.1958190143,-0.17833853289999999,-0.09132184881000001,-0.1082205983,-0.1935506929,-0.2348616536,-0.2722001311,-0.1687216322,0.05758178617,0.03878442012,-0.02521067489,0.0210737772,0.03671439965,-0.1516838405,-0.05204722847,0.03589835673,0.03150635961,0.08095917656,-0.05789021926,0.047734001320000004
113,100,18,5,7,1,1.0,724.0,1,rule follower,114,1,2,2,2,0.5,med,-0.02960088903,0.1047561742,0.1700051316,0.1593562682,0.12189670720000001,0.09936004244999999,0.04471414473,0.1777173787,-0.026728402340000002,-0.02350620163,-0.06109720193,-0.024803374399999998,0.02125918852,-0.09654526435,0.1651552867,-0.21507351079999998,-0.09003965372000002,0.08813228844000001,0.1136313492,-0.04688851773,0.01822045295,-0.03830022708,0.03115135232,-0.07682809815000001,0.1050809361,0.058348923139999995,-0.028438456469999998,0.00902504443,-0.037499918060000005,-0.08037128385,-0.1251436417,-0.04109510274,-0.1303518773,-0.04955318817,-0.1217357341,-0.01831450529,-0.08365644279000001,-0.13437569900000002,-0.03567298074,0.04720746085,-0.02619985583,0.06012094021000001,-0.1683120181,0.03344653485,-0.06130791601,-0.08703421869999999,-0.07643655129,-0.2307701459,-0.04903967406,0.22298933420000003,-0.012246879840000002,0.280071802,-0.18163280010000002,-0.01196789385,0.03019139963,-0.014884737659999998,0.21413807920000003,0.04425601701,0.060496436220000005,-0.037239899189999995,-0.05476579548,0.023362148149999998,0.04218004325,0.04650130374,-0.1044581478,-0.07542281417999999,-0.230975646,-0.011117081780000001,0.08782196525000001,-0.11230520349999999,0.11196977779999999,-0.04043770652,-0.0402731329,0.1342971566,-0.1139057126,0.009804911132,-0.014425443230000001,-0.022090056349999998,-0.0358171662,-0.06707786655,-0.08098391553999999,-0.024812108870000002,-0.13009603849999998,-0.054966504299999996,-0.1396668729,-0.15860046449999998,-0.07428641528,0.067884158,-0.0342611194,-0.1429228102,-0.08909684523,-0.006511094799,-0.02443071558,-0.08279131542,-0.05337436426,-0.10994908939999999,-0.031726492939999996,-0.027821534480000003,0.1528617371,0.04986289014,-0.0033082743709999998,0.12479905570000001,-0.030401267069999998,0.030211549780000003,-0.10543593710000002,0.02599683188,0.1459930073,0.01495243636
114,100,19,5,8,1,1.0,647.0,1,prototype,115,2,2,2,2,0.5,med,0.1664158166,-0.023729877059999998,0.24647313469999999,0.08533173988,0.2396734416,0.2816137348,0.3679274414,-0.1200350434,-0.012447675220000001,-0.02961172063,-0.03439613528,-0.04350699541,0.006208191268,-0.07883956321,-0.01185824949,-0.02894289079,0.007162622733,-0.2140971034,-0.09624528663999998,-0.01178293912,0.02461671969,-0.04571824181,-0.011881912730000001,0.07456620629999999,-0.0698973421,0.07720174481,-0.024721204269999998,0.06907768791,-0.03392810601,-0.07673417467999999,0.1043489081,0.02165923127,-0.1226427302,0.1717363876,0.09682403002000001,0.2535697106,0.07623054282000001,0.0321682147,0.08985587348999999,0.07567828796,0.0337147986,-0.035406979150000004,0.0571035168,-0.028588241339999997,0.003254391986,-0.03654130059,-0.19736018449999998,0.1101878005,-0.02163793366,-0.3283322582,0.1166587023,0.01118596657,-0.102164681,0.3987446478,0.339841715,0.2850961087,-0.1596981251,-0.0036635866999999997,0.13190870000000002,-0.08236261927,-0.04642674165,-0.060826640089999995,-0.1297428917,-0.04404969857,-0.1760734148,-0.19528647940000002,-0.035720284649999996,-0.1286086388,0.07964315473,0.07887814371,-0.0386962273,-0.016748129219999998,0.09675081912999998,-0.017781173850000002,-0.07846195115,0.02184459946,0.0036659112809999997,0.02729989937,-0.04734340453,0.1038239558,-0.08259729201,-0.20982641219999998,0.049034940310000004,0.0986790278,0.07262411508,-0.05650600852000001,-0.01261752696,0.178118618,0.14488904449999998,0.03876846545,0.1542107993,0.01335282331,-0.2002838038,-0.09426718747000001,-0.2302050545,0.09161508577,0.00136008346,-0.1168633124,-0.2005515964,-0.04112346666,-0.01855991365,-0.05764661061000001,-0.09694905562999999,-0.0204143606,-0.00801106574,0.051866878899999996,0.09754755729,-0.04438740299
115,100,20,5,8,1,1.0,792.0,1,prototype,116,2,2,2,2,0.5,med,0.19202104679999998,0.5561539317,0.232811415,0.2826538322,0.032031990780000005,0.03821002993,0.010480296390000001,-0.03712145226,0.139689264,0.010826628710000001,0.05980395921,0.1216193425,-0.06677316030000001,-0.09239360877,0.0107247623,0.08742947164999999,0.08328961742,-0.1601116318,0.31339113960000003,0.03604115815,0.04251092784,-0.08556523045,-0.011157424990000001,0.03246881093,-0.055469205220000005,-0.17627181670000003,-0.1703487708,-0.03096648354,-0.027011997210000003,-0.1145540213,-0.08165513417999999,-0.17079286,-0.1211236333,-0.17236165109999999,-0.1614873466,-0.004085029365,-0.180791089,-0.3572077489,-0.26745967719999997,-0.1450730366,-0.08183964519999999,0.037428732830000006,-0.1970634692,-0.21273456920000003,-0.2861625393,-0.1421572314,-0.2475513339,-0.287593532,0.10237020220000001,-0.11062934869999999,0.19002377739999998,0.2857087466,0.3301928763,-0.03592898217,-0.0003151181766,0.001304499249,0.006682768215,-0.12920881439999998,0.01897955074,0.08390806747000001,0.02608750654,-0.01585276087,0.060307468089999997,0.1512069676,0.037973265219999996,-0.15161807,0.0808125279,0.2154644403,0.18915274710000002,-0.01384834371,0.1761974516,0.1311636285,0.021963130049999998,0.03063199751,0.09583328582999999,0.043232200070000004,-0.08364443851,0.0559888433,0.07873445371,0.09743862947000001,-0.1830575058,-0.04864644784,-0.05169983864,-0.3371150315,-0.08617240493999999,-0.1431300175,-0.20906818789999998,-0.143477899,0.09141819544,-0.2625775742,-0.1842743763,-0.0557665721,-0.06530882736,-0.04647960576,-0.02356988706,-0.1826269854,-0.0008239609601,-0.128808038,0.03176526778,-0.118386779,-0.04670931472,0.08585865058,-0.001386182089,0.024249663190000003,-0.02202076264,-0.1454314271,-0.23971857829999998,-0.031339950719999995
116,100,21,5,8,1,1.0,535.0,1,prototype,117,2,2,2,2,0.5,med,0.2040037659,0.04712677147,0.2616460163,0.1351661,0.1990871077,0.1879061046,0.1326277401,-0.030738974219999996,-0.06422379151,0.2431096871,0.11630947650000001,-0.0553873218,-0.22674102219999998,0.022909075069999996,0.1554755853,-0.06754979304,0.173175816,-0.051924406160000006,-0.20051499899999997,-0.1161454285,0.4684187409,0.05793222559,0.1111213372,0.28107391989999997,-0.31660586739999996,-0.1644393834,0.06148951505,0.05764189595,0.04486117614,0.07142925848,0.1439424302,0.027789789510000003,-0.03374580893,-0.09749411424000001,0.2290042175,0.17120811219999998,0.2326447663,-0.009106306445,-0.02147150285,-0.04908650313,-0.04290135551,-0.1541579294,0.1425135221,-0.3723856691,-0.1993927314,-0.1074855141,-0.05110345824,0.08891202268,0.06374802293,-0.003307069025,0.1978385291,0.08235027478,0.09426048039999999,0.3062153114,0.1201871902,0.1428219413,-0.08871138315999999,-0.04098359573,0.004122741093,-0.03984926608,0.2360605228,0.1207494773,0.00412719091,-0.1987793686,0.06502811553,0.22802764550000001,0.1372620007,-0.09954908269,-0.06415788357999999,-0.05565545502,0.26803206739999996,0.1197444139,0.22302096149999998,-0.0972755391,0.5911548295,0.030303560939999995,0.1333787931,0.05454989177999999,0.01970729769,0.0774803617,0.1231005008,-0.05943254777000001,0.07900912262,-0.03498513474,-0.19464293989999998,0.07347635897999999,0.1138955326,0.41146612829999996,0.02400764892,-0.1063579073,-0.028853300719999996,-0.1531043127,-0.35464574590000003,0.009105598913,0.01585350156,0.0276233541,0.06698634576000001,0.0425579836,-0.1101823327,0.2073062999,-0.03932506026,-0.1683306001,-0.10948261470000001,-0.03762692653,0.0676993922,0.052316782699999995,-0.2608122139,0.047891445240000004
117,100,22,5,1,0,0.0,702.0,1,prototype,118,1,1,1,1,0.5,med,0.057372735720000005,-0.08884580200999999,0.19174649559999998,0.05590648109,0.1272254461,0.1366306353,0.014577101619999998,-0.03107091677,-0.08323517497,-0.01299450743,-0.10061248019999999,-0.008964456317,-0.1055917423,0.0031169894010000003,0.03888936125,-0.1690246826,-0.002696854473,-0.02539816287,-0.06563133485,-0.06690390526000001,-0.019926265959999998,-0.09666216249,-0.05084834101,-0.06355112734,-0.09806390833999999,0.03883002437,6.871539095999999e-05,-0.01290952376,-0.0067993836250000005,-0.02151600375,-0.1740144299,-0.1050295948,-0.06275319077000001,-0.008702680888,0.1162569714,0.1436652938,-0.030508979649999997,-0.05275307329,0.09918903432,0.07943208231000001,0.09753859205,0.1028129931,0.05493749819,0.1168208754,-0.0686199165,0.026284655759999997,0.013454960769999998,0.06608403899,0.01200830247,-0.06320187616,-0.051397902120000005,-0.0728989058,-0.2210079332,0.1444922916,0.02320728699,0.033331268250000004,-0.01694589417,-0.04043144212,-0.013195994280000001,-0.0070077996259999996,-0.03475295296,0.039876773639999995,0.007095010897,-0.1305598862,-0.2091572457,0.0229258264,-0.22386320559999998,-0.060838065159999996,-0.07430333761,-0.08155585411,-0.09130342774,-0.03830423611,-0.02229734728,-0.04382348387,-0.2400045594,-0.1396910361,-0.030578690789999998,-0.001415993722,0.025256190010000002,-0.1763001349,-0.08908032402,-0.1200905282,-0.1108595345,-0.10001598839999999,0.04769617264999999,0.03790077208,0.04159523013,0.1211518318,0.03524434184,-0.036092913319999996,0.1038277633,0.0055398359739999995,0.026997363060000005,0.05499337806,0.05323877715,0.14770959720000001,0.034243389980000004,0.0017298450750000002,0.03755524799,0.1470055548,-0.040710020970000003,0.1270425131,-0.011840312220000001,-0.05891557988,-0.03913598221,0.01025010033,0.3524969501,-0.012527612479999999
118,100,23,5,4,1,0.0,658.0,0,rule follower,119,2,1,2,2,0.5,med,0.1356317992,0.227614447,0.4959448894,0.30224523059999997,0.12230448880000001,0.11394832619999999,0.18602322989999998,-0.05710689418,0.15962546689999998,0.05163622567,0.06665087132,-0.004141930619,0.01069619674,0.05329833908,0.2115020525,0.11618872300000001,0.0249614425,-0.04758057041,0.11289149130000001,0.02427358617,0.1815385708,0.01792075649,0.1258783816,0.08214352186000001,0.03354556901,-0.03111348018,-0.028200536539999998,-0.1179767116,-0.055031570579999994,-0.046313236900000006,0.08651150099999999,0.07155203527000001,0.033496874280000005,-0.1347155117,0.05996385767999999,0.038798315550000004,0.1147999875,-0.07583633557,-0.2717774094,-0.1747413944,-0.02657535171,0.0036045418410000003,-0.22000720420000003,-0.24110002219999999,0.005915456398999999,-0.06105703925,-0.01069315876,-0.19074937890000002,-0.06037884577,-0.1641934983,0.03663668337,0.13684052189999998,0.07069690273,0.07906824082000001,0.03337505125,0.1139676657,0.007550603027,0.04758410651000001,0.2241044656,0.08378682161,0.006020705508,0.05026092326000001,-0.0130625755,0.140397401,0.028607154289999995,0.01025940293,0.1263753048,0.1462058488,0.2198184586,0.1837253212,0.1366160238,0.08182909958,0.1817407706,0.19114370519999999,0.2692115592,0.239050696,0.1358809147,-0.06082848405,-0.014377559319999999,0.3100962896,0.08737383571,0.09723639794,-0.0017670993849999998,-0.016695065319999997,0.1413179272,0.07972191817,0.07398194663,0.10132897560000001,0.07571178678,0.035345585539999995,-0.20536756309999998,-0.1147606365,-0.02362320088,0.06247848408,0.06690051844,-0.23726295170000003,-0.027806314029999998,0.06163166727999999,0.020438039419999998,0.149325139,-0.13464208800000002,-0.06324394926,0.040776378349999996,0.04904506123,-0.1247765994,-0.09687328274,-0.08987760227,-0.05977542617000001
119,100,24,5,7,1,1.0,660.0,1,rule follower,120,1,2,2,2,0.5,med,0.2405900445,0.2729604775,0.2564118011,0.21706066940000002,0.1338942964,0.2383055733,0.18366133210000002,0.1532192584,0.01838213066,0.0030302224859999997,0.05242463328,0.04076582845,-0.056204290159999996,-0.21635108449999998,-0.002829405752,-0.07955607104,0.01639553487,0.1023810175,0.02501983536,-0.042199041330000006,-0.0631486988,-0.1135846826,0.1091819136,-0.004657932506999999,-0.06731501537000001,0.03703176315,-0.07700873481,0.0009588178865,0.06755483911,-0.1312315588,-0.1505463596,-0.06788754019,-0.22186767359999998,0.0040368396380000005,0.01518642999,0.06264283121,0.015251764430000002,0.08950096052,0.008455599411,0.07423173281,0.04469983281999999,-0.1483520481,0.03901536768,0.01607172644,-0.02397014282,-0.04086446948999999,-0.2056861044,0.03771429612,0.04519351688,-0.06486710817,0.23486102,0.2403773743,0.07688361372000001,0.22208038670000002,0.2054471851,0.17484482969999998,0.08596833654,-0.05255948949,-0.05917362352000001,-0.02182686963,-0.03957313932,-0.11695330109999999,-0.04331703637,-0.25665468269999997,-0.0613862838,-0.1253637575,-0.020177938319999998,-0.1510637087,-0.006582355975999999,-0.1455810284,0.028616898050000002,-0.07486740832000001,-0.01976831251,-0.06996564669,-0.09921586877999998,-0.0591012458,-0.08472966152999999,-0.006378483307000001,0.010669781670000001,-0.07790241147,-0.3694205842,-0.2146225523,-0.0985872719,-0.09491200827,-0.1253196067,-0.15119017029999998,-0.059559811500000004,-0.01610976758,0.05916870451,0.026846850439999997,0.032370205939999994,0.012637832679999999,-0.06534588581,-0.044504799500000004,-0.2887625655,0.1095290607,0.03701981653999999,-0.04503142043,-0.2184286457,0.04447672548000001,-0.08404407899,-0.037473696370000004,0.0077014955799999995,-0.09885406262,-0.05552697374,-0.006252216695,-0.22070606269999998,0.01145864686
120,100,1,6,1,0,0.0,1206.0,1,prototype,121,1,1,1,1,0.5,med,0.3013981121,0.656799052,0.3800819556,0.2308726121,0.043520843370000006,-0.02112972014,-0.004743289975,0.3049253751,0.05460532521000001,-0.06006438264,0.01730240688,0.08602953969,-0.003873350755,-0.058313213610000005,0.02135858165,-0.009155450169,0.026132937510000002,0.29111229980000003,0.1496654724,0.02239074127,-0.08491938014,-0.01437681517,-0.1403643149,-0.2326179442,0.06394445135,-0.15775872119999998,-0.1314897857,0.02883742262,0.03797034952,-0.1483734689,-0.21842497989999998,-0.2558808833,-0.16346767140000001,-0.10205095119999999,-0.01418362711,-0.3294698531,-0.16535223029999999,-0.34748054829999997,0.07686695325000001,0.028362063460000003,-0.06152858653,-0.07111279975,-0.21412488100000002,0.008836659573,-0.2597577008,0.046181640360000005,-0.1276294448,0.03154928947,0.09287637395,-0.09469009121,0.2396895457,0.5057787133,0.1511354288,0.1393025192,0.09208441277000001,0.14119071619999998,-0.1245511846,-0.006187641895,0.1116155414,0.01331263587,-0.08180114977000001,0.02722810135,-0.07277908402000001,-0.1898114366,-0.0261471694,0.00012048851350000001,-0.07948855637,-0.008775429516000001,0.04511345824,-0.1510913115,0.003219524814,0.031456284019999996,-0.1294725282,-0.002029778072,-0.45936468420000004,-0.1382949498,-0.149830081,0.06081513899,0.04893256955,-0.21069841600000003,-0.1960366936,-0.1096863841,-0.1433192506,-0.03294609163,0.07206306518,-0.04269842571,-0.054296232679999994,-0.05625264937999999,0.04541600866000001,-0.06800051437000001,0.1322738674,0.042446987410000005,0.18776883760000002,0.1692420841,0.12812428439999998,0.05808017371,0.01560673606,-0.07235588925,0.07573213963,-0.1184591182,-0.0170520079,-0.06042768565000001,0.03668877675,-0.06536436709,-0.0061674437260000005,0.0108086037,-0.41118906759999996,-0.02195792616
121,100,2,6,1,0,0.0,1059.0,1,prototype,122,1,1,1,1,0.5,med,0.20350309809999997,0.6140893261,0.3326215795,0.30931244059999996,0.08863278265,0.09645963852,0.028511145319999997,-0.4384605983,0.006434368845000001,-0.1009109828,-0.1086646545,-0.09862203731000001,0.025959572480000002,0.008211566025999999,-0.03408623923,-0.005365361827999999,-0.1960241678,-0.24054348260000002,-0.1389381451,-0.06899094357,-0.02578946534,-0.1004028973,-0.031276594160000004,0.01352677119,-0.0338792077,-0.054919020049999996,-0.011507710990000001,-0.057833257879999996,0.012101033290000002,-0.04030949529,-0.01980521928,-0.05315485695,0.0067193585140000005,0.03460160674,0.020699548340000002,-0.020181913569999998,-0.01430217791,0.06396894482000001,0.1058368708,0.06604858955,0.0063259024419999995,-0.012604098519999999,0.057970484339999996,0.06272946056,0.07702251196,-0.05521260405,-0.06940578569,-0.07399302256,-0.03332693766,-0.03786863395,0.1970849742,0.5571215596,0.3025884103,-0.005158395659,-0.03183160024,0.05279438853,0.07195984945,0.04617650571,-0.05628662975,0.014555668689999999,-0.10020670970000001,-0.1017998909,0.002171417268,0.05115289738,0.1578609239,-0.04193028253,-0.01200578148,-0.0830565331,-0.09290397791,-0.01391123789,-0.05272271734,-0.0055714346530000005,0.01347615409,0.001104750131,-0.013235198370000001,-0.1248667884,0.017782290239999998,-0.0162328113,-0.01077908923,-0.09843442441,-0.1502635332,-0.02225567425,-0.03628580368,-0.07614038978,-0.0001290220882,-0.1238086749,0.004653078976,-0.051120765240000005,0.06711720572,-0.1343518431,-0.0038277555869999998,-0.08812782396,-0.09382502276,-0.004627335261,-0.06452880084,-0.1338830164,-0.05250701687,-0.04556757552,-0.03453406933,-0.11714439089999999,0.01047156947,0.04715020678,-0.07857023758,-0.0037905297139999997,-0.011970140169999999,0.08154558917,-0.004183248805,0.04486161996
122,100,3,6,5,1,1.0,1062.0,1,exception,123,1,2,1,2,0.5,med,-0.1021620754,-0.15984193630000001,0.03798604445,0.13536147029999998,0.07416453179,0.1962899306,0.2388416005,-0.2638809203,-0.11416175560000001,0.06082927539,0.03396670039,0.04563771616,0.2526643656,-0.06746869845,0.05020528456,-0.16407062460000002,0.08796727353,-0.130455191,-0.18748499719999998,0.02103403507,0.05207160536,0.07129036269,0.1664448669,0.10502338619999999,0.1395878736,0.09007130697,0.1111045467,-0.008490248326,0.02514909771,-0.06139736118,-0.1473112611,0.1350567218,0.11598920289999999,0.1008768951,-0.048566077230000004,-0.06687939742,-0.1297485059,0.05801239289,-0.05191722244,0.02077222401,-0.0033399063650000004,-0.03371269254,0.011437067140000002,0.1171785351,0.049378000199999994,0.05207553959,0.08461770164999999,-0.06984559481000001,-0.1382869161,0.07430937558999999,0.1167082918,0.0956934144,0.030433096019999998,0.3061849781,0.11707627529999999,0.2770718827,0.1177641867,-0.08597113365,-0.13204151,-0.05317512603,-0.040307875869999996,-0.06756056378,0.1277266779,0.3146337171,-0.03798060422,-2.1090533449999997e-05,-0.1557009626,-0.09873945919,-0.1052735382,-0.03167830708,-0.06838852533,-0.05366188683999999,-0.04602257078,-0.001760023758,-0.021327224130000003,0.02213694285,0.09049944727,0.04616744358,-0.04826102915,-0.08728830283,-0.03604463699,-0.06461596363,-0.1182827368,-0.1305135192,-0.16761887050000002,-0.015135750409999999,-0.08589152922,-0.02933440352,-0.14341285869999998,0.002636937796,-0.1578483358,0.02984398307,-0.009606997919,-0.07811652722,-0.06763677332000001,-0.1331986725,-0.062142116039999994,0.02115244165,-0.05532702539,0.06209981802,0.02449999123,0.1328070842,0.07858702525,0.1399258491,-0.02849235597,0.04523844951,0.1838814232,0.01226388307
123,100,4,6,6,0,1.0,1048.0,0,exception,124,2,2,1,1,0.5,med,0.17412430850000002,0.37499595609999997,0.03539789417,-0.09861382601,-0.08645251492,-0.2638135212,-0.2871409343,-0.1430675502,-0.07887140041,-0.13268817019999998,-0.036545951119999996,-0.09462753016,-0.1316006606,0.03216389188,-0.1279464189,0.09815775807,-0.013040399380000001,0.08195943642999999,-0.08184952073,-0.05142962222,-0.06834420794,-0.1058839891,-0.1307978403,-0.20410931429999998,-0.1514444715,-0.2991511725,-0.1646216773,-0.08555799673,-0.05230419856000001,-0.02216303702,0.20624213149999998,0.002543621054,-0.07124523767,-0.07502366377,-0.06437591745,-0.0662620214,-0.09047694208999998,0.02215320887,-0.01504779801,-0.1710667333,-0.1290546426,-0.2093607249,-0.11047098949999999,-0.2814424694,0.01843454243,-0.1436680017,-0.06872796735,0.01039107557,-0.01339181219,-0.2407939375,0.006755753105999999,0.1935389617,0.05877533512,-0.07113439249,-0.036987249130000004,-0.138028959,-0.1163374219,0.05751472252999999,0.055273302,-0.04385162980000001,-0.035605023300000004,-0.10997118630000001,-0.06548980082,-0.2186555988,-0.002344054195,-0.02367102188,0.32956210420000004,0.08539219995,0.06999390949,0.08390618919,0.002853459852,-0.05113495471,-0.04179221462,-0.06133461347,-0.05932361177,-0.08382654451,-0.03353810513,-0.02177689513,-0.0054222119279999995,0.2616861933,0.2991051953,0.053025199589999995,0.08653052386,0.3704526286,0.44243985049999995,0.185887246,-0.05450628877,0.07712562575,0.06623143979,0.2623054216,0.05815471135,-0.1326638348,0.08533531206,0.05934497172,0.046394564910000005,0.05780376646000001,-0.021458237930000002,-0.07319308909,-0.006900820704,-0.12110942150000001,-0.01632482226,0.049739700989999996,-0.08106481842,-0.1445988726,-0.028712685079999998,0.036224090089999994,-0.17455200059999998,-0.003981255171
124,100,5,6,7,1,1.0,845.0,1,rule follower,125,1,2,2,2,0.5,med,-0.07944040512999999,0.08893224652000001,0.0852159455,0.1358564022,0.1189645674,0.2076844052,0.1460333597,-0.03850241252,0.03232072745,-0.06425654117,-0.06448703592,-0.11243987720000001,-0.07702452348,0.12033333730000001,0.03434514725,0.1434446354,-0.028381337169999996,0.009737834381,-0.09566951743999999,0.108283395,0.1202043559,-0.053118192450000004,0.04517413232,-0.02472899667,0.1165640954,0.06612248532000001,0.16583969839999999,0.024150962510000002,-0.0005350298146,-0.01663530644,0.06970557211,0.03006653453,0.21571885940000002,0.01999073386,0.044784773459999996,0.09546245091,-0.05273462674,-0.10777940289999999,-0.002810327855,-0.008027656005,0.07488144389,0.00019828738730000002,-0.005961736625,0.011073022029999999,-0.141750918,0.009375911309999999,-0.06060556714,-0.1747658554,0.04238509264,0.02778303723,0.02251051886,0.03216477928,-0.037844628910000004,0.08871392764000001,0.01483418142,0.057269276050000005,0.08584083414999999,0.07504726117,0.056468858979999995,-0.01369773656,-0.061485917429999995,0.003087100501,0.08640517939999999,-0.08045594806,0.0625711524,-0.07273148783,0.1143672007,0.1332939549,-0.07645714366,0.0701638191,0.01429223115,0.1109653758,-0.028634320560000003,0.08500531122000002,-0.001282458312,0.07208803701000001,0.06772404101,-0.03216797951000001,-0.00034969363530000004,0.06918023492,0.002616165748,0.1053840922,0.04720566399,-0.24400925350000002,-0.1049138466,0.0292424788,0.06034055198,-0.024857307090000003,0.1269096171,-0.18706225559999998,-0.017010855480000003,-0.01805852414,-0.045620298569999995,0.123216305,0.015089797319999999,-0.145146671,0.05703518881,0.03148182123,-0.003682232341,-0.057190627589999994,-0.0235649555,-0.1163069068,-0.050541972340000005,-0.08375673972999999,0.061431443120000005,-0.1228942449,-0.09302026450999999,-0.07618318327000001
125,100,6,6,6,0,1.0,1078.0,0,exception,126,2,2,1,1,0.5,med,0.50476938,0.7976804451999999,0.5846210474,0.49467515240000004,0.242389732,0.08895262071,0.04659991063,-0.1394005123,-0.15795610300000001,-0.09178616266,-0.07743989721,-0.07312707178,0.19263039140000002,-0.04356941465,0.07465538973,0.020580901369999998,-0.02156264418,0.05729421301,-0.08994098012,-0.1581689882,-0.08117384942000001,0.04468311383,-0.04170778323,0.0658059353,-0.030564154510000004,-0.21390265890000001,-0.06012621903,-0.06152209034,-0.06668784386,-0.08142704676,-0.1144710468,-0.06873785,-0.07967706017000001,-0.002708277422,0.1385250698,-0.1307500516,-0.08190292283,-0.101060255,0.018232201519999998,-0.07766691821,-0.09123381478,-0.04373316246,-0.1555366218,-0.2129925293,-0.17072864350000003,-0.2033113116,-0.1742246986,-0.16923085969999999,0.014958133810000001,-0.16154218539999998,0.4194488494,0.6499133717,0.38318662299999995,0.2575389543,0.032604144019999996,0.2577108426,-0.2433625311,-0.05697315247,-0.142196618,-0.1263619878,-0.15604452259999999,-0.1212455618,-0.1676601935,0.08448022115,0.1557866418,-0.2483314891,0.005899400714000001,-0.2065290625,-0.1372420676,-0.1599597131,-0.061795261739999996,-0.07354492937999998,-0.059392442760000004,-0.09155997616,-0.12365668630000001,-0.1410747168,0.04442617266,-0.059201996070000006,-0.04746678466,-0.07525228196,0.02863852133,-0.2187130955,-0.02566605409,-0.1574603029,-0.1004058316,-0.03866739753,-0.07871256181,-0.04004209917,-0.24019310600000002,-0.1736937644,-0.04692919837,-0.10749983880000001,-0.1735585277,-0.07367274198,-0.1669015205,0.06343456237,-0.03156397097,-0.06956987706000001,-0.033755257420000004,-0.17068362280000002,-0.054657146,0.06246052476,-0.1059894404,0.044037945610000004,-0.050317128360000005,0.03564344562,-0.16791904789999998,0.05818933121
126,100,7,6,1,0,0.0,901.0,1,prototype,127,1,1,1,1,0.5,med,-0.08062020848,-0.09036670541000001,-0.2138775464,-0.06351395122999999,-0.1032235842,-0.1473714471,-0.1881031028,-0.12612040970000002,-0.1405527885,-0.1073622861,-0.12419890880000001,-0.2600551416,0.017683073259999998,0.07830035376,0.04588351884,0.1512803208,-0.03236618283,0.05164403941000001,-0.2104371493,0.1472894922,0.01893620508,-0.03850670259,-0.053997699450000006,-0.1636801216,0.03637185211,0.1376289622,-0.008860748198,-0.057636007870000006,0.001001652174,0.09938209582999999,0.2941642537,0.1981705656,0.07971553185,-0.030765468880000004,0.1601611277,0.1537930403,-0.01307662287,0.1905454197,0.20570307010000002,-0.054961855750000004,0.001726778304,0.04087729233,0.1310659305,-0.02158222807,0.213087964,-0.05418470881,0.11636649269999999,0.04288286001,-0.029208228330000002,0.24036529809999999,-0.06592227562999999,-0.1203251544,-0.09912574187999999,-0.08031086235,-0.09984614414,-0.1383756305,-0.07027764382,0.1178026319,0.01374604113,-0.041062869849999996,-0.1807787411,-0.004659767842,-0.1007137273,-0.01635502191,0.043460479010000004,0.07500666516,0.3759608073,0.16676737279999998,0.08929063211,0.2662927217,0.03779291752,-0.06990934588,-0.05306071233,0.01423039334,0.1119960679,0.11344727289999999,0.011741359440000002,0.02042140365,-0.05030947326,0.2819384302,0.1785080188,0.05939650343,0.053987315720000005,0.2975274461,0.2163079535,0.03362509682,0.03847918015,0.2613068672,0.08538025582,0.1996997747,0.1222936064,-0.05569190194,-0.018990463330000002,0.025611186600000002,-0.07858342037999999,0.08650617710000001,-0.04468429783,0.01347565979,-0.07086766991,0.1101599987,-0.01246401433,0.07596075605000001,-0.010889331409999998,-0.058853262510000004,-0.01586140976,-0.07899441319,0.14784304980000001,-0.05966656743
127,100,8,6,8,1,1.0,570.0,1,prototype,128,2,2,2,2,0.5,med,-0.07421334772,0.07974226329,0.0523800129,0.0026688418800000003,0.03673881811,0.043666165789999996,-0.0008875636202,-0.3674704419,0.1465923018,0.013151860420000001,0.02557095369,0.06700743111,0.0502797061,0.05013432661,-0.1570910201,-0.0669642818,-0.036321229760000004,-0.22282278809999997,-0.013750356819999998,-0.10486820449999999,-0.04791544738,-0.09261927669,-0.02875714265,-0.06227911294,-0.006074740629,-0.1324779517,-0.08796415641000001,-0.013010872520000001,-0.03216075048,-0.006560608158,-0.09739854474,-0.07066900381,-0.07514195725,-0.007903935421,0.09674121293,-0.09622774880000001,-0.031658205669999995,0.1376702875,0.068781441,0.034381858019999996,-0.03185131178,-0.30725453350000004,0.03429574779,0.009756621574,-0.1030558701,-0.048851180310000006,-0.1204780766,0.22844520149999997,-0.00894009,-0.2591076847,-0.0040652551640000005,-0.06711551429,-0.09699208112,0.18947992,0.06644861632999999,0.036063985730000005,0.02012601684,0.08864264436000001,-0.030590095710000004,0.06715998087,0.0187865778,-0.0244444944,0.1165211385,0.048391988430000005,-0.09087363425,0.1230045891,0.1174602959,-0.1149055456,0.09997421235,0.110959695,-0.04399188,-0.09898378652,-0.01626094929,-0.006275085355,-0.2084196435,-0.11609316189999999,-0.03547938874,0.022698690589999997,-0.005747340803,0.012042852120000001,-0.009345907411,-0.07383616956,0.044970556550000006,0.08775152242999999,0.01014852455,-0.01942379539,-0.03255539727,0.057508838789999996,-0.01321377466,0.2377053325,0.208539897,0.07767049121,-0.06635718503,-0.011113506940000002,-0.08637174937999999,0.07288834238,-0.0009902336805,-0.026002868560000003,-0.19757418570000002,-0.1691771395,-0.030348217169999997,-0.0988223218,0.01952671919,-0.02403092208,-0.019890090380000003,0.051236510779999994,-0.5518234184,-0.042510213729999996
128,100,9,6,2,0,0.0,588.0,1,rule follower,129,2,1,1,1,0.5,med,0.2632298409,0.486219805,0.7330832826000001,0.391416221,0.1676174976,0.2604903554,0.3584460697,0.4131569445,-0.03947564125,-0.01685500004,-0.0224551449,0.07741619015,0.24304380960000002,-0.05631663029,-0.00441141822,-0.1059721087,0.1849246466,0.3108274561,0.04804037049,-0.023059559900000002,-0.07012954201,-0.04363866187,-0.1252175207,-0.0393956515,0.03815317025,-0.05400890847999999,-0.1312195892,-0.06535014613,0.04227445681,-0.1134882141,-0.2535595787,-0.1796540968,-0.1409917068,-0.09107447219,-0.2178710794,-0.23602715870000002,-0.1762555761,-0.3209777849,-0.21698681449999999,-0.000929476096,-0.011037736999999999,-0.0008459784069,-0.23833231800000002,-0.05593850716,-0.1723189071,-0.06514133956,-0.12242036869999999,-0.1932673079,-0.01883143803,-0.03442068118,0.2873356946,0.5264571116,0.04543308195,0.1891933445,0.1892111829,0.2360123609,0.33236720420000004,-0.050232094299999995,-0.04091656216,-0.07454470926,-0.054444957989999994,-0.058975490979999996,0.08183867008,0.1730651774,0.026345874619999998,-0.1504500098,-0.3618442781,0.2082743112,-0.1572466581,-0.1332782639,0.0735485902,-0.07357210911,-0.0907545517,-0.04533635757,-0.2908391432,-0.1268747793,-0.07259635,-0.024837426040000003,0.027594469069999995,-0.2034022979,-0.2760635542,-0.1174304008,-0.1241017742,-0.2378986433,-0.0841708018,-0.06734169844,-0.059442588,-0.4545009672,-0.1138411078,-0.2709711518,-0.21087952329999998,0.07573547302,0.04792716989,0.029378169410000002,-0.00201093578,-0.1284830799,-0.046815239960000005,-0.07996733367,0.02282106736,-0.1341316886,-0.072026507,-0.001451892629,-0.02321261667,0.02127424007,-0.11295062269999999,-0.07676506988,0.003977595673,-0.008925426424999999
129,100,10,6,3,0,0.0,720.0,1,rule follower,130,1,1,2,1,0.5,med,0.08647171542000001,0.37196771549999996,0.09230101502999999,-0.01074997568,-0.08140149647999999,-0.17533375829999998,-0.20382901539999998,-0.242840467,-0.061485256970000006,0.007661358005999999,-0.01026185996,0.003379801798,0.0044781391930000004,0.1502025916,0.10638316390000001,-0.02462683587,0.10702915210000001,0.09084421695,-0.1844547762,-0.0295181278,0.09624385698999999,0.031554819989999996,0.1654521637,-0.08943322771,0.05149157868,-0.1417502206,0.024752073700000002,0.07156374082,0.08112460726,-0.026923085710000006,0.12525163849999998,0.0551926228,0.24605187,-0.05279689238,-0.03776554345,-0.3006335577,-0.0976811041,-0.1616585075,-0.1566327116,-0.1765960334,0.053228112300000005,0.08898915472,-0.06807354749,0.01930377368,0.009246755217,0.1154684655,0.15187716710000002,-0.037175331760000006,0.01583413733,0.0103755949,0.05556983863,0.27303784579999996,0.2408803884,-0.1269116692,-0.10107826269999999,-0.11906566689999999,0.1092435066,-0.02076289798,-0.09376434529,0.03159303208,0.009445333135000001,-0.05259063629,-0.0041912991019999995,0.1274840307,0.1302176734,-0.07483724003,-0.04298701084,-0.023876784530000004,-0.1013845602,-0.09076961046,0.03165998542,0.1163299314,-0.10299591970000001,0.06575251222999999,-0.06464901442000001,-0.01717499652,0.05574722236000001,0.05443577318,0.1118398917,-0.04249812122,0.06879946678,0.1802222911,-0.035045076780000003,-0.2472340816,0.2113960468,0.06216173399,-0.1153613485,-0.2043457393,0.1667515738,-0.19311094399999998,-0.215893962,-0.120478147,0.1333456776,0.1144858326,0.217058744,-0.1290162375,-0.051317155329999996,0.04980680399,0.1955885195,-0.04306240376,0.09335016603,0.033042486919999996,0.09203025379,0.009980955746000001,0.08185979304999999,-0.08659292737,0.1030051737,-0.006643511392
130,100,11,6,5,1,1.0,542.0,1,exception,131,1,2,1,2,0.5,med,0.1357353542,0.2686536357,0.3221655155,0.3071660493,0.1885683372,0.4329491047,0.43416634439999996,-0.1690051794,-0.1453778138,0.03373417215,-0.06687483102000001,-0.09944560712999999,0.0884885613,-0.1242563603,0.05963944306,-0.0994048377,-0.06931582791,-0.08361338482000001,-0.2626494928,-0.0387675707,0.08925973726,0.01008824106,0.03893523253,-0.044505516739999994,0.1142127681,-0.1661278468,0.06303745239,-0.02251060128,0.041967790719999995,-0.08337881057999999,-0.12107669119999999,-0.16093092720000002,-0.009507873408999999,-0.02051041075,-0.06623408785,-0.1095683868,-0.1001456039,-0.3686091372,0.014208268710000001,-0.08256193393,-0.03105896855,0.07885092936,-0.08813832409,-0.054697466560000005,-0.2415797866,0.004112062175,-0.1728708284,-0.08198873997,0.013768347030000003,0.334618719,0.1111078681,0.2251647146,0.07757176202,0.2990366597,0.2181343284,0.3113448634,0.2184491895,0.057302661399999996,-0.0320767666,-0.120901033,-0.05204536597,-0.051745008530000004,-0.01227439467,0.07152523562,-0.03737669063,0.1179678539,0.02045168406,-0.1275737671,-0.1168775256,-0.023891111740000002,-0.08372661502999999,0.04527426533,0.08195811781000001,0.1013239775,-0.06450292451,-0.0925116049,0.04420649389,-0.013377964240000002,0.033228061860000005,-0.07343829334,-0.013035205659999998,-0.027888525939999995,-0.04121630586,-0.004645402882,0.002165135533,-0.02384794758,-0.04457450346,0.07192538154,-0.038900385919999995,-0.1697042368,0.04433897738,-0.047738505630000004,0.018461898430000002,0.008401423754,-0.07161445847,0.05866579443,-0.0065664699,0.06439740762,0.1279316399,0.13254636820000001,0.07760015636,0.05318769864,0.007376214154000001,0.08517591158,0.10184538789999999,0.1390858973,-0.05036711198,0.05510132667999999
131,100,12,6,1,0,0.0,486.0,1,prototype,132,1,1,1,1,0.5,med,0.1389991361,0.47780086829999996,0.1727991392,0.06557777455,-0.1229093179,-0.40088666009999996,-0.3589031451,-0.3047841702,-0.02207098131,-0.1153150686,0.01703521128,-0.11190528539999998,0.0209726064,0.1443541489,0.002269297293,0.1417193611,-0.133380384,-0.1151080357,-0.07250377719,-0.06463245542,-0.06042423677,-0.09418068240000001,-0.1419158305,-0.09498487853,-0.1305344578,0.018230732649999998,-0.019014482130000003,-0.07770003405,-0.0500956158,0.046531035260000006,-0.04076726606,-0.11697542039999999,-0.1327847852,-0.02807520102,-0.1024783635,0.05721964307,-0.04778446392,0.046473407189999996,0.006582245913,-0.0058116742669999995,0.005296887879999999,-0.06287316247000001,0.06092398476,0.1086113318,-0.07757082712,-0.120322844,-0.09849167863,-0.07931231287,0.06204944787,-0.2670581939,0.07518890356,0.278625171,0.1362265916,-0.1967197632,-0.1911409601,0.00023949309409999997,-0.19041707289999998,0.11022881949999999,0.06971659446,-0.009217205646000001,-0.08372567707,0.04646691569,0.021894697180000002,0.1125521951,0.2097681777,-0.06992094262,0.1362732358,-0.09847587965,0.07690937283,-0.01596687262,0.039171888860000004,-0.060355664329999996,-0.08779188565,-0.0030878229960000004,-0.1106527185,-0.08136862732999998,0.00029763987760000004,0.005926748628,-0.01765476629,-0.03629713465,0.07129359018999999,-0.1078493757,0.16181156970000002,-0.1474272621,-0.08910015156,-0.014703255880000002,-0.08482756577,-0.08807228140000001,0.08831753054,-0.0029118811090000003,-0.029591502860000004,-0.03421816903,0.08247792664,0.04043633772,-0.0007308877159,-0.1708339184,0.03946839336,-0.04152021896,-0.1361489102,-0.06732887727,-0.043491998139999995,-0.02753676264,-0.09806202611999999,-0.04493747730000001,0.09095223823,0.19095910300000002,-0.05314183222,0.003299565381
132,100,13,6,8,1,1.0,1782.0,1,prototype,133,2,2,2,2,0.5,med,0.2797467309,0.4939144425,0.44051411890000003,0.38638906689999997,0.06971914662999999,0.2575237395,0.14513622029999998,-0.05955465948,-0.004759605684,-0.008774142493,-0.014785437260000001,0.07794795383,0.37680599659999997,0.1317673067,0.15104644679999998,0.15872739460000002,0.2139705995,0.1264425938,-0.02550714045,0.041670141349999995,0.14708045779999998,0.05326551668000001,0.03526519565,0.055166404610000004,0.0521503123,-0.07920745438999999,-0.007287230956,-0.005567576623,-0.023986062519999997,0.04421841931,0.06995340644999999,-0.01877523266,0.008468021944,-0.21783976359999999,0.2014378482,0.0586738253,-0.03802552251,-0.07062552084,-0.05140015783,-0.1141682232,-0.06635844784,-0.1829352016,-0.1294753477,-0.3274962742,-0.1958642911,-0.1720870093,-0.2257224736,0.07766689645,0.02061012822,-0.1627475148,0.21551931219999998,0.236490325,0.1053291384,0.2279242343,0.15261450210000002,0.1816816434,0.28193748760000004,0.23795434149999997,0.1775711539,0.0018482720490000002,-0.032083761989999994,-0.045267628729999995,0.19170604100000002,0.6696597108,0.09571295278999999,-0.12362713730000001,0.1225967641,0.09458376713,-0.009625041389,0.1416228476,0.2620108507,-0.007795665131,0.06636050151,0.08272382895,0.09161099049,-0.020042872269999998,-0.0293859115,-0.011523693319999999,-0.03653216325,0.0146680548,-0.008123564284,0.006550222223,-0.02216729723,-0.3108633929,-0.0471873055,-0.2063684345,-0.03347992266,-0.08952498102,-0.04243209356000001,-0.21412935190000001,-0.08778382911,-0.1652134342,-0.2451941124,0.01622800561,-0.11670668070000001,-0.00157055922,0.05209011923,-0.01909828519,-0.1346037071,-0.00710392985,0.004141111649999999,-0.02004662618,0.000950088594,-0.06808554876,-0.05406296745,-0.18464722170000003,-0.2444854214,-0.05111062382
133,100,14,6,4,1,0.0,582.0,0,rule follower,134,2,1,2,2,0.5,med,0.17692502510000002,0.2088160241,0.24779016339999999,0.32346107879999997,0.20320644489999998,0.2519823417,0.2248408043,-0.1526022061,-0.004589078386,-0.06375365088,-0.08835651731000001,-0.05726316791,0.07339922186,0.02552137253,0.1713614872,-0.036633694669999994,-0.047383441389999996,-0.07177623427999999,-0.05223926386,0.09711355405,-0.02372544867,-0.08267213743,-0.051319040930000004,-0.1068109701,0.20950637809999997,0.08447344732999999,-0.1283539748,-0.1055178602,0.001367975974,-0.08493806339,-0.16815113199999998,0.0775983842,0.1582894956,0.07668700422000001,-0.2098134691,-0.1170126359,-0.2230764418,0.1100644558,-0.057318336170000005,-0.02417163006,0.03129360483,-0.06602879133999999,0.01077629631,0.1411558544,0.042176169890000004,0.05816442002,0.13850264199999998,-0.19359718399999998,-0.06277239299,0.2920160484,0.07341649883,0.06513224997,0.023169472740000002,0.24826458059999998,0.12990734310000002,0.1952785949,0.3326776859,0.03321074663,0.09856486467,0.09467379154,-0.04334407976,-0.05552953208,0.08665380274000001,-0.08104058618,0.009145627817,0.10534046710000002,0.032420616160000006,0.017733512519999998,0.09502645742999999,0.07934795792999999,-0.0998688692,-0.06569582245,-0.09827136497000001,-0.012161632779999999,-0.1383832492,0.024035304730000002,-0.09358458068,-0.07305394328999999,0.05344398643,-0.07018922317000001,-0.1079260809,-0.05646770063999999,-0.04785570667,0.137767878,0.1166643002,0.046957629220000005,-0.1426332675,-0.09798114604000001,0.08939427431,0.2241339361,0.056510484810000004,0.01768702005,0.054647323729999996,0.057134796349999996,-0.025339024300000002,-0.07889951137,-0.1040950914,0.02542755193,0.04993544741000001,0.005314556723,-0.10412220189999999,-0.07110153963,0.04219154266,-0.1441014829,-0.1031891833,-0.02120620071,-0.5393372213000001,-0.034164173539999995
134,100,15,6,8,1,1.0,675.0,1,prototype,135,2,2,2,2,0.5,med,-0.02840654472,0.1158769294,0.1140889883,0.03256686728,-0.02579039299,-0.01765856262,0.1378399033,-0.1554500626,0.035929881989999995,-0.1432981411,-0.053654375610000006,-0.09954221032999999,-0.00813010632,0.06228606339,-0.09706561785000001,-0.062443963879999995,0.001501749883,-0.12047993039999999,-0.1029498815,-0.10957655179999999,-0.07673061767000001,-0.061120796,-0.174670718,-0.1795339554,-0.01735591469,0.04781021785,-0.04738139761,0.08051343883999999,0.015097486010000001,0.04660637443,-0.1019768875,0.03038013111,0.1109176783,0.02671170472,0.06186086031,-0.08778467015000001,0.009747416581,0.1340634907,0.09893055307,0.1894046838,0.06449961726,-0.08302814349,0.06261906069,0.35577499960000003,-0.02258069744,0.09460999949999999,0.09263613834,0.026846599110000004,0.005795578269,-0.2464672534,0.06604156274,0.2729304389,-0.0060692964529999996,-0.024186159500000002,0.003691282288,-0.015516122490000001,-0.161006832,-0.008011122483,-0.01744643503,-0.04230508307,-0.08718395279999999,-0.1237653592,-0.1208737053,-0.1468663814,0.01276210317,0.08180055091,-0.08009980145,0.12577059,0.007497513088,0.008517890305,-0.09613397614,-0.1120520052,-0.12216478720000001,-0.06587477746,-0.3640258504,-0.1072549701,-0.09286511852,0.09611946969,0.003724820289,-0.1386341488,-0.0532383739,-0.09245008759,-0.06540359062000001,0.22981561379999998,-0.1364351941,-0.01799009377,0.141740786,-0.10218540849999999,-0.01398477936,0.05485796391,0.129790823,0.3235739721,0.2785624726,0.13707034140000002,-0.047633006219999996,0.041400745499999995,-0.05701286037,-0.07059097553999999,-0.051948711110000004,-0.1418117988,-0.029904656139999996,0.055352619299999996,-0.009998016002,0.04827404316000001,-0.03944060472,-0.003039567488,-0.030855629730000004,-0.0585623285
135,100,16,6,4,1,0.0,557.0,0,rule follower,136,2,1,2,2,0.5,med,0.1321227756,0.18686038149999998,0.2531911696,0.1120889125,0.18335283559999999,0.0933756342,-0.1154527237,-0.22090901579999997,0.009029993062,-0.11714048449999999,-0.1959793232,-0.2089375918,-0.12054474949999999,-0.04545196875,-0.15614598289999998,-0.07255679973,-0.2519091973,-0.004146049198999999,-0.2750975305,0.03157011787,-0.16284064980000001,-0.1129577369,-0.02141155288,-0.08339854249,0.0996843,-0.0056180820149999994,-0.01930638799,-0.1324781844,-0.07999802,-0.02690912514,0.08123272519,-0.1011586072,-0.009185373985999999,0.06700240984,0.2905530477,0.07483676595,-0.027441948460000004,0.1877860606,0.23767242449999998,0.08349761201,-0.05011474606000001,-0.034681605469999995,0.1227893645,-0.08730549885,0.1036333486,-0.1775701122,-0.1613895876,0.04997846478,-0.01136063497,-0.08374448737000001,0.09673834662,0.1563260158,0.06690972833,0.2362947516,0.013667113169999998,-0.02407403067,-0.22396955300000002,-0.012089340120000002,-0.2588619901,0.01085545948,-0.1876794975,-0.09319981895,-0.1479982756,-0.1358124818,-0.02983665162,-0.11708774710000001,0.1319294254,-0.05973059687999999,-0.2438699509,0.020988943330000003,-0.1992006655,-0.08578750324,-0.08139725476,-0.0004951639510000001,0.08848656273,0.09304239562000001,0.06997506287000001,-0.06799118833,-0.032466131960000005,0.23286169199999998,-0.02047280746,0.06881060166,0.06402297567000001,0.2853284122,0.2611300645,0.04666235,-0.0422968802,0.3339067201,0.2700909124,0.3229105099,0.2873150452,0.06448250399,-0.0424162561,-0.04151011591,0.0027552285499999997,0.2530255811,-0.01895860252,-0.04234557261,-0.08406146233999999,-0.1766735298,-0.025935841299999998,0.06400432941,-0.026498743560000003,-0.013721246909999998,-0.03349721377,-0.06862583994,0.3311445765,-0.02235783859
136,100,17,6,1,0,0.0,516.0,1,prototype,137,1,1,1,1,0.5,med,0.23592188670000003,0.5731816361,0.2236163137,0.2302637266,-0.08769876803,-0.18519462609999998,-0.1856118267,-0.27987164870000003,-0.1401126038,-0.02685840177,0.040260823189999996,-0.0985737526,0.0827407646,0.09104553292000002,0.0485803042,0.1426614408,0.04366220682,0.1656935211,-0.339251691,-0.06766420972000001,0.07475286951,-0.07033367627,0.0591709193,-0.0303948695,-0.07198113276000001,-0.356519385,-0.1265955927,-0.06758403325000001,-0.0365732601,0.05962643375,0.22086212219999998,0.009272751825,0.1374966188,-0.2120456869,-0.2735571,-0.46178520450000005,-0.1284521596,-0.05383580378,-0.2470829128,-0.3081168022,-0.008275199466,-0.0428980312,-0.18402175559999998,-0.3445362422,-0.03190932855,-0.1497079767,-0.06508723477999999,-0.32180630190000004,-0.07675641373,0.05042512456,0.2397490105,0.5969251099,0.3653439927,0.03409345323,-0.09406886575,0.06680033315,0.2405385419,0.1737057116,-0.07179014666,-0.032059895219999995,-0.05751648151000001,-0.014803628969999998,-0.08434037036,0.163057331,0.2833552806,-0.1115470221,0.3376160383,0.1070060134,-0.23869893760000002,0.06069316884,0.057783156460000006,0.10977743460000002,-0.04288464571,-0.044789362560000004,0.38146561700000003,-0.03967441546,0.1953784539,-0.0045455270419999996,0.01162271186,0.321899169,0.5454901753,0.26820194420000004,0.2077293338,0.08970080784,0.3458529682,0.1588089749,-0.006553183444,-0.10583657910000001,0.1017462521,-0.1584533558,-0.282640939,-0.2921265281,-0.07791859249,0.112898475,0.3074681839,-0.41091824509999997,-0.04041912585,-0.07486053325,0.09863665857000001,-0.0482770351,-0.09136919617,-0.07509018533,-0.05300225879,0.04922111405,-0.009139750139000001,0.08354846841,-0.468369682,-0.04642823544
137,100,18,6,8,1,1.0,913.0,1,prototype,138,2,2,2,2,0.5,med,0.2589916415,0.33836893310000005,0.40488470460000003,0.5057744440999999,0.1764889622,0.3182697987,0.35058834590000004,-0.05458808702,-0.03666107793,0.10553173310000001,0.00201425999,0.10299809130000001,0.2793805734,0.01412790115,0.3164164103,0.09625095347000001,0.33209336629999997,0.1066190248,0.2596239549,0.012761677620000002,0.1577957511,0.15295670849999998,0.05559968545,0.02370890808,0.08830703996,-0.1565630499,-0.08775711943,-0.052011785250000005,-0.015868707240000002,-0.1702318168,-0.04075401171,-0.07463478701000001,-0.003969476328,-0.12225064769999999,0.026480587400000002,-0.03169464382,-0.18180309329999997,-0.5083880178,-0.2920315327,-0.32254210969999997,-0.1574283568,-0.1341717959,-0.4011684446,-0.5058676331,-0.3880750923,-0.07439528057,-0.2517658322,-0.1173669298,-0.055187431329999995,0.10540148199999999,0.19260924940000002,0.3047775956,0.1277802578,0.38277129719999997,0.21842745730000002,0.3674232312,0.3026538287,0.1556787816,0.2063092098,-0.027477476860000002,-0.11607373300000001,0.05503354333,0.1665573732,0.2038511742,0.10212575980000001,-0.1618788797,-0.0071111040289999995,-0.059244771189999997,0.2732806767,0.06806628949,0.1254924242,0.04336549364,0.03159155836,0.06087513655,-0.1477552707,-0.03282963336,0.05949608341,0.02877864708,-0.06325818295,-0.022040639759999998,0.01451462539,-0.1732059766,-0.1147637647,-0.555563385,-0.1702895479,-0.002468434305,-0.1408679009,-0.1363922094,-0.2875631562,-0.3648705949,-0.24576085960000002,-0.2820086967,-0.431123662,-0.059014578600000006,-0.3209706746,-0.0952208079,0.01855555458,0.006255470816,-0.18074174350000002,-0.03754965807,0.006400156526,0.004009949561,0.043542385930000004,-0.08152206424,-0.09667049774,-0.0735225717,0.2200847961,0.05123694596
138,100,19,6,3,0,0.0,519.0,1,rule follower,139,1,1,2,1,0.5,med,0.055437551960000005,0.257009611,0.2062288535,0.1488698993,0.09722014558,-0.1318852528,0.04847091283,-0.2569468842,0.04091844288,-0.1898092909,0.06624294614,-0.09228248193,-0.034437204789999995,0.1308821966,-0.34315861729999997,0.07433176945,-0.1660753396,-0.2102778645,-0.1202141763,-0.1204041391,-0.14296436740000001,-0.1275774124,-0.20318789550000002,-0.10904926779999999,-0.19974138670000002,-0.15598429619999998,-0.12883777359999998,0.08098535113,0.004051610758,0.1105531192,-0.04071275727,-0.01101666862,-0.1634179557,0.10089699029999999,0.3352656213,-0.08688463388,0.1013186531,0.4251736713,0.2107293347,0.1205644845,-0.03301687605,-0.1085163647,0.1882139668,0.1290610624,0.2247881708,-0.0725447377,0.1430897089,0.0994730079,0.0287018951,-0.39517076289999997,0.2026498401,0.2589117663,0.1417492894,0.06232572342,-0.001472529684,0.09416349964,-0.3726960855,-0.0339853507,-0.10001511210000001,-0.0391743663,-0.0062892459080000004,-0.05057957393,-0.04496683864,-0.02552081275,0.03466729963,-0.005387063014,-0.047706113,-0.08392443121,-0.16833341710000002,-0.1150307326,-0.1234708487,-0.21583620969999998,-0.1929884327,-0.209719005,-0.3592788818,-0.3525317601,-0.1328332017,0.07629377209,-0.0321771165,-0.1538318076,-0.04194874795,-0.1914914366,-0.04698778188,0.08975893403999999,-0.08829542989,-0.051862037060000005,0.08540428561,-0.056679209329999994,-0.0808770066,0.07334588987,0.058830485079999995,0.07283965167,0.01544323063,-0.05369470142000001,0.002704555524,0.04137931398,-0.0356131821,0.005153546949,-0.08305252085,-0.2134470963,-0.08774547194,0.012726933390000002,-0.0871865931,0.02093508367,-0.0214411481,0.02375116479,-0.2020031509,-0.05462554832
139,100,20,6,1,0,0.0,990.0,1,prototype,140,1,1,1,1,0.5,med,0.03579534692,0.1809322082,0.24438306440000002,0.2167386552,0.1648372534,0.3891091644,0.3703566592,-0.21964220269999998,-0.1120258184,-0.01651725409,-0.11210713539999999,-0.006721594605000001,0.011321686670000001,-0.025261326480000002,0.03298683168,-0.1125938861,0.09409532726,-0.2611882123,-0.10703337550000001,-0.01828676844,0.2699217593,0.03292031098,0.08414318438999999,0.1337138713,0.2013852969,0.08585887702,0.14084718699999998,-0.0047275159100000005,-0.019310288069999997,-0.13784085640000002,-0.159066911,0.01256752598,0.08393374672000001,0.008145476985,0.1870188925,0.19273275920000002,-0.02918457222,-0.15385176890000002,0.1072093031,0.07325497416,-0.0062845896929999995,-0.11167655900000001,-0.06731514342,0.11950472820000001,-0.2010263533,-0.029660941769999997,-0.07425296592,0.05270143535,0.05919595391,0.06268631441,0.05139623061000001,-0.03349576383,-0.06836631955,0.3216629627,0.17325294149999998,0.2101311745,0.1411310533,0.004017254364,0.08985206732,-0.001039741742,0.055800940439999995,-0.0712469755,0.1364636762,0.1134016652,-0.04830372421,0.1133583038,-0.1360191852,0.03937418197,0.07832402947,0.03339218131,0.2582444806,0.06946283329,0.1468332547,0.09728205509,-0.09967018072999999,0.07397723882,0.025159709210000002,-0.07711813993,0.01010907422,-0.1961732237,-0.1804987048,-0.06938333319000001,-0.1847632195,-0.2237405531,-0.2167023096,-0.19537496079999997,-0.07617732001000001,-0.04678346882,-0.09159835664999999,-0.1271417101,0.01356732342,0.06221223835,-0.02065692262,-0.06898601613,-0.1940439704,0.1008432655,0.02127231982,0.09453570095000001,0.012131605559999998,0.1458533612,0.04769867619,0.06267074678,0.020991155049999998,0.021391646769999998,0.025398910139999998,0.025346790430000002,-0.04790294606000001,0.07151072619
140,100,21,6,7,1,1.0,579.0,1,rule follower,141,1,2,2,2,0.5,med,0.22105921469999998,0.5161918527,0.21664954460000002,-0.07003766047,-0.1883894945,-0.2798870193,-0.21251547710000002,0.06059011202,0.0571635432,-0.15757297480000002,-0.025233585910000002,-0.07891478033,-0.19758157010000002,0.054981606270000004,-0.03206082181,-0.0229075108,-0.26012117170000004,0.07551446097999999,-0.147756255,0.057925410159999996,-0.1783211103,-0.09289451738,-0.05155798514,-0.01943979469,-0.02322491038,0.047756731919999997,-0.05556192377,0.019558169480000002,0.06317334802,0.09079744064999999,-0.0723453565,-0.09107738607999999,-0.12121722300000001,-0.044693353049999995,-0.173830381,-0.1234914234,-0.1461205813,0.023566905359999998,0.06196976186000001,0.11869800259999999,0.16483213289999998,0.14434455640000002,0.1487289243,0.2331899481,0.194638012,0.06292657577,-0.0046778245789999996,-0.03182352965,-0.03036220535,-0.05803077874,0.0007207402029,0.2576418963,0.06918479964,-0.37934506960000003,-0.2212265154,-0.21038324100000003,-0.1446844236,0.1541601053,-0.031387660760000005,0.1022908731,-0.034081459189999996,-0.01665891883,-0.1339394374,-0.1825292396,0.07206446116000001,-0.0142500086,0.07871763187000001,0.2694671471,-0.01771708954,0.1287991726,-0.03632317985,-0.08845024152999999,-0.04352752858,-0.03546388171,-0.11932710140000001,-0.01657456156,-0.031370941810000004,0.026373142489999998,0.09828768747000001,0.14888970880000002,-0.1772117226,-0.022459065519999998,0.1316734234,0.1790095065,0.12616952509999999,-0.02043217908,-0.07702905112000001,-0.1600522845,0.2097440217,-0.04591893133,0.041095750189999995,0.19275221120000002,0.2041314436,0.03480540462,0.02490918721,-0.03802513977,0.031832315560000005,0.0001314466621,-0.01027585933,-0.05771431297,0.024062059790000003,0.0150022297,0.003296859414,-0.05374112004,0.07334546865000001,-0.02178336708,-0.0038788823299999993,-0.04070595693
141,100,22,6,2,0,0.0,839.0,1,rule follower,142,2,1,1,1,0.5,med,0.1271290503,0.2815956749,0.061314726220000004,0.10375884310000001,-0.026862288819999997,-0.030682877310000002,-0.07375331453,0.027472151860000002,-0.03617552265,-0.0382762611,-0.07144060818,-0.08453786249,0.2387298825,0.1613948157,0.11395577119999999,0.1171075782,0.106103854,0.05705820904,0.1792252713,0.09152736563,0.1307895115,-0.10658851550000001,-0.008880253325,-0.03321481842,0.08517566884,0.1202455261,-0.07252756208,0.02920153579,-0.07801032347999999,0.09631785787000001,0.1684914744,0.1588065489,0.11635047189999999,-0.02328649035,0.0016629312469999998,0.08882584259,-0.01001856069,0.1576648747,-0.11192820199999999,-0.2293205772,-0.13150457,-0.08842220966,-0.006656686188,-0.1045805603,0.1361323357,-0.1666039762,0.2583559285,-0.19611367829999998,-0.08765519604000001,-0.07228064247,0.08963694227,0.233941545,0.06375651317,0.00967361083,-0.03772179444,0.06339131440000001,0.003295737505,-0.03964887711,0.01654042061,0.02460319136,-0.05894002944,-0.09473190717,0.10651964050000001,0.16423058,0.1055779479,-0.1033938647,-0.09680431364,-0.0657045499,0.06822252775,-0.09882234877999999,-0.059624792,-0.04307481413,-0.01699923992,0.011176195420000002,-0.14594107039999998,-0.02973570837,-0.061176127149999995,-0.01491712524,-0.014429625049999999,-0.1610638747,0.015609265209999999,-0.031972471739999994,-0.1177641037,-0.18471514309999998,0.04198264585,-0.05679588692000001,-0.056347226560000005,-0.1762878755,-0.1284744775,-0.09639811548,-0.2117588774,-0.1695331674,-0.220006995,-0.027111719330000002,-0.09196510716,-0.09799018467000001,-0.04585851513,-0.17265009050000002,-0.07862962305,-0.0283478087,-0.0836836327,-0.031269424930000005,0.04780978062,-0.058595380770000004,-0.12456679789999998,0.03924946727,-0.22780629800000002,-0.02990023891
142,100,23,6,8,1,1.0,685.0,1,prototype,143,2,2,2,2,0.5,med,0.1081845695,0.33670541159999995,0.4015811218,0.4732650744,0.21006896600000002,0.30684147850000004,0.3241252236,-0.3331854582,-0.102241995,0.0077719603489999995,-0.1423301787,-0.127654586,-0.08823395904999999,-0.09087582527,0.02347855923,0.01758093767,-0.03033099438,-0.16338897759999998,-0.2796844527,-0.09208404501,-0.1030796184,-0.04988288754,-0.02578320503,-0.1929907201,-0.006639825095,-0.27166173899999996,-0.1653390893,0.012106731090000001,-0.001802715712,-0.1757980496,-0.17693472579999997,-0.1555412665,-0.019297250980000003,-0.09419999782999999,0.05092117428,-0.2146888572,-0.08088397157,-0.21470554420000001,-0.00033667545139999994,0.01701255741,-0.06280536075,-0.18323935,-0.2325665541,-0.14142010689999998,-0.2935803831,-0.1593111759,-0.2406819861,-0.04805568408,-0.03832388036,-0.08339004650000001,0.1963290553,0.4041932296,0.22301702420000002,0.3673954265,0.2896064914,0.327208195,0.1120605568,0.06334298761,0.007258779341,-0.01820871146,-0.07079226067000001,-0.03262381195,-0.1507912249,-0.16166907449999998,-0.06610321084,-0.0009074173137000001,0.113347315,0.009393348229,-0.1316881423,0.03161368668,-0.1184151747,-0.048707531330000005,-0.016669949530000002,0.044992433059999996,-0.1627873934,-0.03148056046,0.014791623200000001,0.03999373342,-0.02061046977,-0.1088205797,-0.1001598501,-0.0290793044,-0.07181573121,0.09423636140000001,0.03532611445,0.1183075003,0.05324636489,0.17141832199999998,0.09596245018999999,0.04955909263,0.16774207630000001,0.09382522966,0.0745611117,0.03502439058,-0.01189975443,0.02471818261,-0.018036797009999998,0.09672510963,0.03000418798,-0.05800638373,0.042711538650000005,0.04127541082,0.026369975219999998,0.09466273666000001,-0.03529152015,0.01205873467,-0.36442431799999997,0.07207974468999999
143,100,24,6,8,1,1.0,636.0,1,prototype,144,2,2,2,2,0.5,med,0.2148112089,0.2945801922,0.06450477308,-0.08912521562999999,-0.09517603791000001,-0.19632105940000003,-0.4296101204,-0.2855742561,-0.06803492774,-0.08999919781,-0.07652201953,-0.09015744798,0.08279569182999999,0.1087863465,0.0009392155232,0.07282054413,-0.03943718998,0.006530380077,-0.1446741061,0.021711816569999997,0.04720669725,-0.022252268430000003,0.06001958463,0.12437451779999999,0.06645558035,0.1114367095,0.20569498760000002,-0.0584814232,-0.04806059991,0.1129032294,0.2930865354,0.2717020992,0.216361959,0.04699223381,0.1427094505,0.1299914664,0.07687329232000001,0.34573025049999995,0.1579389283,-0.04331716654,0.009529447908,-0.01283475103,0.1691593909,-0.022848133880000003,0.2645336239,-0.049893618269999995,0.1431439284,0.02112117454,-0.041354581349999996,0.05538451021000001,0.07177496527,0.2665763726,0.124621853,-0.1457512841,-0.1923507992,-0.3049666151,-0.19834794579999998,-1.105465461e-05,-0.1933246118,-0.0808875486,-0.1371584123,-0.1391109491,-0.043835401270000005,0.11557369519999999,0.1735506393,-0.1113912534,0.3003192704,-0.007850547245,-0.02450616287,0.1042425349,-0.04584109251,-0.08397613545,0.01792842749,-0.0347634565,0.11453201210000001,-0.05192308772,0.17783432940000002,-0.11712648269999999,-0.03489938836,0.2565841425,0.2937871832,0.050554412199999996,0.14186758900000002,0.1351874595,0.1334845592,-0.02744902815,0.07172443481,0.07797438494,-0.1779407707,0.1828496727,-0.010918837150000001,-0.1505776174,-0.1637039756,-0.11349848359999999,-0.1661314343,0.1205263809,-0.01265131468,-0.08781033765,-0.20024872649999997,-0.1296391374,-0.040206585360000005,-0.040011851689999996,-0.02092538831,0.03242083045,-0.08367667396,-0.041947660559999995,0.1590092955,-0.0697397629
240,101,1,5,6,0,0.0,714.0,1,exception,97,1,2,2,1,0.375,low,0.1208460341,0.2222395996,0.25773976649999997,0.18792683289999998,0.01025663484,0.08074849074,0.1561972133,0.1243641217,-0.023737844259999998,0.0009324590634,-0.04363210584,-0.04398396695,0.03978095892,-0.06382440589999999,-0.09364526902999999,-0.01853333535,-0.1476023795,0.01073528981,-0.02364943647,-0.04141257948,-0.2347013702,-0.03622015375,-0.00255717346,-0.06614592424,-0.1096094976,-0.02086629274,0.003208958674,0.03602179145,-0.00343803282,-0.005005917847,-0.0007753619946,-0.08535284812,-0.0332129118,0.05420183716,0.1162938427,-0.041094203460000006,0.007399806589000001,-0.16389340289999998,-0.1627239338,-0.0168363694,0.03085865442,-0.007871741964,-0.06792086985000001,-0.09531572197,0.11922809720000001,0.05239847165,-0.09250396443,0.059192476560000006,0.006132279203,-0.03154227048,0.1724124991,0.324895489,0.1499143136,-0.0131036916,0.04283763725,0.1648640958,0.02769071409,-0.06070531592,0.06800973767000001,0.007847783079,0.007309711352,-0.1305468324,-0.044877501730000005,0.05897578196000001,0.09035098831,-0.04725166339,-0.002842215681,-0.04482914537,-0.02425510963,-0.04027912018,-0.045798656910000006,-0.024828548829999998,-0.04704002171,0.02318735651,0.1362005174,0.06814940393999999,0.0668585657,0.028357427220000002,-0.008857084718000001,0.01426473377,-0.010594798829999998,0.0002270402392,-0.08683300583999999,-0.11684505460000001,0.026311418330000003,0.002916654215,0.1025224315,0.05656786711,0.011799100630000002,-0.1316763842,0.03162329665,-0.04059280659,-0.1324140123,0.005196916636,-0.055846988539999996,0.08069644879,-0.04902862738,0.0040376869,0.0032742863620000002,-0.02324806545,0.05082452316,0.01630389139,0.02324545734,0.0027530831819999996,0.01698958436,-0.04029380211,0.016945702780000002,0.044682210810000005
241,101,2,5,1,0,0.0,474.0,1,prototype,98,1,1,1,1,0.375,low,0.1425754116,0.1410657615,0.35208698299999996,0.048670997869999996,-0.0050460726360000005,0.03452489005,-0.07947411451,0.003411531591,-0.1263323001,-0.03460106869,0.01459690493,0.01840037515,-0.000328436639,0.00951054189,-0.00235269005,-0.05008319655,0.1651722364,0.1440519671,-0.1014969912,-0.026345270219999998,0.1251339593,-0.04911504137,-0.005248591673,-0.08410808256,-0.1432527988,-0.02038061666,-0.03326403486,-0.051341143889999996,-0.0327215652,-0.012620334050000001,0.1129396646,0.041156499869999995,0.100703324,-0.05427813209,-0.2161390614,-0.1124622228,-0.11515197869999999,0.02758203901,-0.11303352789999999,-0.1778162579,-0.05774277482000001,0.01758559701,-0.009653446269,-0.07166859602999999,0.1260085919,0.09056889260999999,-0.006951841708,-0.06974926169,-0.09398904898,0.06271130719,0.1362469522,0.1628851272,0.18538406940000002,0.2885156297,0.03859761921,0.10452669199999999,-0.0252945579,-0.150077627,-0.08175364893999999,-0.09185873016000001,-0.02576751921,0.01759339966,-0.044991617580000004,-0.19124103620000002,0.08250830447,-0.00033822926680000007,0.07732496207999999,0.034484784039999994,-0.002637921566,-0.004726731721000001,0.061961287520000005,-0.005887908775,-0.1477050092,-0.02524827299,0.3002009898,0.08502386841,0.1127669093,-0.010642650420000002,-0.00039518562850000003,0.166835963,0.09097288457000001,0.001362095633,-0.07012536779,0.10897716699999999,0.3183517242,0.1153175522,-0.0832649041,-0.02259593571,0.1819362042,0.047743827710000006,-0.06264755521000001,-0.1278935102,-0.1084001524,0.059271267300000006,0.04028444387,-0.0085633547,0.007782422316,-0.07592356636,0.06974326387,-0.05860504257,-0.043401377180000006,0.049514411560000006,0.07146149126,0.009157587847,0.000265958386,-0.123459018,0.0004051717189,-0.06089112278
242,101,3,5,8,1,1.0,712.0,1,prototype,99,2,2,2,2,0.375,low,0.2839217031,0.4100763892,0.5005508411,0.13191894710000002,0.03194467517,-0.01906613848,-0.03583552239,-0.2056676453,-0.09681997077,-0.111236664,-0.1229295888,-0.057576926449999996,-0.1111892424,0.04379274058,0.04767531531000001,0.007423502038,-0.06175686366,-0.18859981280000002,-0.058640515879999994,0.006241434364,-0.1237984659,0.00019529330869999997,-0.1578263308,-0.09756648255000001,-0.1330298532,0.138187836,-0.07485050915,0.009282006455,0.04038834773,0.014883122780000002,-0.04294894593,-0.0005527718808999999,-0.07016198369,0.12988613300000001,0.008280654573999999,-0.0800835423,-0.07690775552,0.06040863772999999,-0.002357764015,-0.0891261166,0.031575650739999996,-0.003858586351,-0.10055349720000001,-0.024353133340000003,-0.001682495424,-0.04258649793000001,-0.04515299213000001,-0.04313059954,-0.04430280607,-0.04488659524,0.2247005838,0.36761363090000004,0.37670852689999995,-0.03364336037,0.024762501719999996,0.125817548,0.05216401084,0.10626110189999999,0.002994108036,-0.02775628168,-0.00043044290069999995,0.0032007445399999997,-0.07608339199,-0.1113630754,0.0985688015,-0.08883020759,0.05142434324,0.0109429502,-0.03479704477,0.029822433430000003,-0.16922650670000003,-0.05486916199,-0.02689557688,-0.1036739691,-0.05082362387,0.1482185257,0.05280294039,0.021909418259999997,0.04454543813999999,0.08091835621,-0.04846592777,-0.02725403808,0.0065478095259999996,-0.09678890621,-0.03699826192,0.07811652663,-0.027183475889999996,-0.09993338081,0.04333446032,0.029966611560000005,-0.004940608826,-0.02776333208,0.04810404973,0.1796270115,0.03336033827,0.04681737992,0.03552814333,0.04353237318,-0.020346677030000003,-0.1743585456,-0.02028305532,0.029868293900000002,-0.0709245074,0.06401155392,0.007085993705,-0.06946894329,-0.3173845866,-0.07269963022
243,101,4,5,4,1,1.0,750.0,1,rule follower,100,2,2,1,2,0.375,low,0.08734695770999999,0.3203297659,0.06441025181,0.26103310960000004,0.1337000458,0.18862909960000002,0.1587568342,-0.02226128665,0.25230925670000004,0.11956243820000001,-0.10712926710000001,-0.01743227119,-0.0888279139,0.06726218451,0.12991980109999998,0.1204270611,0.07198366321,0.09634613929,0.09698830440999999,-0.01571584561,-0.0040628579849999995,0.006942660439,-0.02702550389,0.055868888660000005,-0.03046505361,-0.003874433456,-0.037830849439999994,-0.048360547530000006,0.045969716339999994,0.0146786144,-0.006690040527999999,-0.028483465510000004,-0.02078703765,-0.01586095949,-0.0791992414,-0.008263927727,-0.07596121816000001,0.044752759680000004,-0.06399955258,-0.1476896625,-0.0670083126,0.08924869643,-0.1038287684,-0.1075406926,-0.12282998310000001,-0.07693148897,-0.07646340298,-0.09826622722000002,-0.059698737360000004,-0.0036039349379999998,0.2488568681,0.19766804359999998,0.3722440742,0.11621497869999999,0.154680404,0.3482251736,0.3145653843,0.4105102042,0.20592992429999998,0.257668566,0.2659653929,-0.006708234986000001,0.04791152787,0.0796246557,0.2256662525,0.07548516991000001,0.1049870226,0.2301319449,0.01512252281,-0.03310272707,-0.04166378541,-0.044374102369999995,0.09505288717,-0.06402154048,-0.1191031909,-0.0737160117,-0.05907622491,-0.013749604680000001,-0.002131016159,0.1629053306,-0.06061128467,-0.0026316004570000003,-0.07625143762999999,-0.23078034809999998,-0.051843822180000006,-0.07452122679999999,-0.07092008922,-0.037898518789999995,-0.04955923057,-0.05922982849,0.02000984749,-0.18088116969999998,-0.1928901705,-0.04606851865,-0.03981544,-0.001008964,0.07235821862000001,0.02834068414,0.07211299978999999,0.09922226803999999,-0.013050061850000001,-0.03445723162,-0.06551050061000001,-0.03506677752,0.02589803375,0.041626687460000006,-0.3645463522,-0.054076862729999994
244,101,5,5,6,0,0.0,743.0,1,exception,101,1,2,2,1,0.375,low,0.1654506047,0.30233444239999996,0.05601299645,-0.1422724265,-0.0258927126,-0.005385977959,-0.04373051512,-0.024188088530000002,-0.1071023083,-0.026669393309999997,0.05742893984,0.05556936106000001,-0.0172940849,0.004738258893999999,-0.005508290067,-0.138953704,-0.007322924119,0.1813221558,-0.008025572433,-0.038722365210000005,-0.08660547824999999,-0.03001862673,-0.021902285589999997,-0.03705400529,-0.0857070283,-0.1557626142,-0.012905610320000002,-0.007422098236,-0.07465701212999999,0.01683052756,0.00501206254,-0.013537359740000001,-0.02021700001,-0.09071415536,-0.121911331,-0.1513856005,0.01057212522,-0.08470686899,-0.1651915308,0.03619586283,0.0041355889919999994,-0.1031179723,0.07120074519,-0.09762826096,0.032824677489999995,0.09167986436,0.01695213091,0.1020518186,0.0009417496752,-0.05900021765,0.10729825220000001,0.3146915865,0.0972226038,-0.06411269272999999,0.04496854996,-0.05972253375,-0.0466698669,-0.2055665016,0.01367625582,-0.1783300434,-0.1340095919,-0.07965604723,-0.04699789373,-0.16208281630000002,0.1327487233,0.1222575624,-0.1337399531,0.07656992794,-0.12055225060000001,-0.1490101558,0.2203242693,0.06624539533,-0.10599398269999999,0.01424096764,0.1567589272,-0.2190586557,-0.01162569487,0.06861372089,0.02320404568,-0.0002354629448,-0.08707201393,-0.05941858563999999,-0.1306685469,-0.009289540327,-0.1108824082,-0.1123120642,0.02451185077,-0.1159759819,0.09740704616000001,-0.0904370413,-0.09713770264,-0.008776851123,-0.0980463687,0.09846688484999999,-0.05176196928,-0.1179027225,-0.0219029304,0.003921067292,-0.01097607699,-0.07823585745,0.11146369910000001,-0.05810174455,-0.051844289280000004,0.02668314802,0.04075857957,-0.12637733980000002,-0.2298761796,0.1092858967
245,101,6,5,3,0,1.0,605.0,0,rule follower,102,2,1,1,1,0.375,low,0.1591361801,0.2710505937,0.3942254032,0.20120526719999998,0.05352465107,0.04329265081,0.07628183491,-0.2238127693,-0.2024206247,-0.2393905107,-0.1494302022,-0.07639339449,-0.1676862408,0.0865070335,0.1297879344,0.03249204766,-0.1031775318,-0.02179087231,-0.1069724115,-0.2000617663,-0.1249576741,-0.20373111370000002,-0.1921700361,-0.1320550133,-0.2091494618,-0.1807750614,-0.09440184458999999,-0.01149227176,-0.005332815971,0.03425979182,-0.04403001068,-0.20672778530000002,-0.3099903727,-0.08918574902999998,-0.06259550869,0.0038024076169999995,-0.0330565831,-0.04705298599,0.026134664380000002,-0.1293874522,0.0009195562148,-0.02230573137,0.01002520604,-0.1455540767,-0.047822552680000005,-0.1535374551,-0.09134115861,-0.002591171655,-0.005197439437,-0.104696115,0.2293969738,0.2202979584,0.4854593589,0.12865296810000001,0.03549460168,0.2883382109,-0.2471387392,-0.056184757099999996,-0.002368236037,-0.07916988774,-0.13493453789999998,-0.01302899408,-0.15988375289999998,-0.1122370256,0.1709002579,0.1181777985,0.04297640993,-0.1244928642,-0.1539058753,-0.09119136605,-0.1116857417,-0.1450838887,-0.1124831188,-0.1896459903,-0.34983913759999996,-0.27873288739999996,-0.09387828204,-0.045910586669999996,0.04732698687,-0.1047906665,-0.376220228,-0.3207107756,-0.05902119831,-0.1139392164,-0.2119966328,-0.18172154710000002,-0.1032829747,-0.139405232,-0.1223449808,-0.1594787318,0.02676243893,-0.17508478100000002,-0.2017000834,-0.2301695556,-0.2026004246,0.11749883,0.013129463259999998,-0.08424375071000001,-0.106755658,-0.10121130589999999,-0.01793780585,-0.035218708169999995,-0.18140815079999997,0.08235149197000001,-0.032839052949999996,-0.0900306723,-0.38000150509999997,-0.07484233167
