,sbj,runtrial,run,stimx,answer,response,rt,correct,type,trial,f1,f2,f3,c,endacc,learner
0,100,1,1,8,1,,,0,prototype,1,2,2,2,2,0.5,med
1,100,2,1,7,1,1.0,1912.0,1,rule follower,2,1,2,2,2,0.5,med
2,100,3,1,1,0,1.0,1230.0,0,prototype,3,1,1,1,1,0.5,med
3,100,4,1,1,0,1.0,1665.0,0,prototype,4,1,1,1,1,0.5,med
4,100,5,1,8,1,1.0,1133.0,1,prototype,5,2,2,2,2,0.5,med
5,100,6,1,4,1,0.0,1045.0,0,rule follower,6,2,1,2,2,0.5,med
6,100,7,1,5,1,1.0,1527.0,1,exception,7,1,2,1,2,0.5,med
7,100,8,1,8,1,1.0,1385.0,1,prototype,8,2,2,2,2,0.5,med
8,100,9,1,1,0,0.0,1681.0,1,prototype,9,1,1,1,1,0.5,med
9,100,10,1,8,1,1.0,717.0,1,prototype,10,2,2,2,2,0.5,med
10,100,11,1,6,0,1.0,612.0,0,exception,11,2,2,1,1,0.5,med
11,100,12,1,4,1,0.0,1832.0,0,rule follower,12,2,1,2,2,0.5,med
12,100,13,1,6,0,0.0,1220.0,1,exception,13,2,2,1,1,0.5,med
13,100,14,1,7,1,1.0,1732.0,1,rule follower,14,1,2,2,2,0.5,med
14,100,15,1,1,0,0.0,2013.0,1,prototype,15,1,1,1,1,0.5,med
15,100,16,1,8,1,1.0,1596.0,1,prototype,16,2,2,2,2,0.5,med
16,100,17,1,3,0,0.0,1500.0,1,rule follower,17,1,1,2,1,0.5,med
17,100,18,1,5,1,1.0,1448.0,1,exception,18,1,2,1,2,0.5,med
18,100,19,1,3,0,0.0,1045.0,1,rule follower,19,1,1,2,1,0.5,med
19,100,20,1,1,0,0.0,1533.0,1,prototype,20,1,1,1,1,0.5,med
20,100,21,1,1,0,0.0,1628.0,1,prototype,21,1,1,1,1,0.5,med
21,100,22,1,8,1,0.0,2463.0,0,prototype,22,2,2,2,2,0.5,med
22,100,23,1,2,0,0.0,1491.0,1,rule follower,23,2,1,1,1,0.5,med
23,100,24,1,2,0,0.0,1579.0,1,rule follower,24,2,1,1,1,0.5,med
24,100,1,2,1,0,0.0,1216.0,1,prototype,25,1,1,1,1,0.5,med
25,100,2,2,8,1,1.0,894.0,1,prototype,26,2,2,2,2,0.5,med
26,100,3,2,8,1,1.0,972.0,1,prototype,27,2,2,2,2,0.5,med
27,100,4,2,1,0,0.0,1483.0,1,prototype,28,1,1,1,1,0.5,med
28,100,5,2,5,1,1.0,769.0,1,exception,29,1,2,1,2,0.5,med
29,100,6,2,6,0,1.0,1013.0,0,exception,30,2,2,1,1,0.5,med
30,100,7,2,3,0,0.0,1071.0,1,rule follower,31,1,1,2,1,0.5,med
31,100,8,2,7,1,1.0,1085.0,1,rule follower,32,1,2,2,2,0.5,med
32,100,9,2,4,1,0.0,864.0,0,rule follower,33,2,1,2,2,0.5,med
33,100,10,2,7,1,,,0,rule follower,34,1,2,2,2,0.5,med
34,100,11,2,8,1,1.0,860.0,1,prototype,35,2,2,2,2,0.5,med
35,100,12,2,2,0,0.0,1325.0,1,rule follower,36,2,1,1,1,0.5,med
36,100,13,2,4,1,0.0,2489.0,0,rule follower,37,2,1,2,2,0.5,med
37,100,14,2,3,0,0.0,1942.0,1,rule follower,38,1,1,2,1,0.5,med
38,100,15,2,8,1,1.0,1710.0,1,prototype,39,2,2,2,2,0.5,med
39,100,16,2,1,0,0.0,1201.0,1,prototype,40,1,1,1,1,0.5,med
40,100,17,2,5,1,1.0,1892.0,1,exception,41,1,2,1,2,0.5,med
41,100,18,2,8,1,0.0,2049.0,0,prototype,42,2,2,2,2,0.5,med
42,100,19,2,1,0,0.0,808.0,1,prototype,43,1,1,1,1,0.5,med
43,100,20,2,6,0,1.0,721.0,0,exception,44,2,2,1,1,0.5,med
44,100,21,2,2,0,0.0,1816.0,1,rule follower,45,2,1,1,1,0.5,med
45,100,22,2,8,1,1.0,2894.0,1,prototype,46,2,2,2,2,0.5,med
46,100,23,2,1,0,0.0,567.0,1,prototype,47,1,1,1,1,0.5,med
47,100,24,2,1,0,0.0,1227.0,1,prototype,48,1,1,1,1,0.5,med
144,101,1,1,3,0,,,0,rule follower,1,2,1,1,1,0.375,low
145,101,2,1,3,0,1.0,826.0,0,rule follower,2,2,1,1,1,0.375,low
146,101,3,1,4,1,0.0,706.0,0,rule follower,3,2,2,1,2,0.375,low
147,101,4,1,1,0,1.0,1503.0,0,prototype,4,1,1,1,1,0.375,low
148,101,5,1,8,1,1.0,1053.0,1,prototype,5,2,2,2,2,0.375,low
149,101,6,1,5,1,0.0,914.0,0,exception,6,1,1,2,2,0.375,low
150,101,7,1,1,0,1.0,2055.0,0,prototype,7,1,1,1,1,0.375,low
151,101,8,1,2,0,1.0,2490.0,0,rule follower,8,1,2,1,1,0.375,low
152,101,9,1,6,0,0.0,875.0,1,exception,9,1,2,2,1,0.375,low
153,101,10,1,8,1,1.0,1531.0,1,prototype,10,2,2,2,2,0.375,low
154,101,11,1,1,0,0.0,1122.0,1,prototype,11,1,1,1,1,0.375,low
155,101,12,1,2,0,0.0,1304.0,1,rule follower,12,1,2,1,1,0.375,low
156,101,13,1,7,1,1.0,1339.0,1,rule follower,13,2,1,2,2,0.375,low
157,101,14,1,8,1,1.0,1197.0,1,prototype,14,2,2,2,2,0.375,low
158,101,15,1,4,1,1.0,1113.0,1,rule follower,15,2,2,1,2,0.375,low
159,101,16,1,8,1,1.0,837.0,1,prototype,16,2,2,2,2,0.375,low
160,101,17,1,7,1,1.0,387.0,1,rule follower,17,2,1,2,2,0.375,low
161,101,18,1,8,1,1.0,427.0,1,prototype,18,2,2,2,2,0.375,low
162,101,19,1,5,1,0.0,482.0,0,exception,19,1,1,2,2,0.375,low
163,101,20,1,1,0,1.0,1250.0,0,prototype,20,1,1,1,1,0.375,low
164,101,21,1,1,0,0.0,1429.0,1,prototype,21,1,1,1,1,0.375,low
165,101,22,1,1,0,0.0,812.0,1,prototype,22,1,1,1,1,0.375,low
166,101,23,1,8,1,1.0,714.0,1,prototype,23,2,2,2,2,0.375,low
167,101,24,1,6,0,0.0,693.0,1,exception,24,1,2,2,1,0.375,low
168,101,1,2,4,1,1.0,618.0,1,rule follower,25,2,2,1,2,0.375,low
169,101,2,2,1,0,0.0,433.0,1,prototype,26,1,1,1,1,0.375,low
170,101,3,2,2,0,1.0,372.0,0,rule follower,27,1,2,1,1,0.375,low
171,101,4,2,7,1,1.0,688.0,1,rule follower,28,2,1,2,2,0.375,low
172,101,5,2,8,1,1.0,566.0,1,prototype,29,2,2,2,2,0.375,low
173,101,6,2,8,1,1.0,482.0,1,prototype,30,2,2,2,2,0.375,low
174,101,7,2,3,0,1.0,481.0,0,rule follower,31,2,1,1,1,0.375,low
175,101,8,2,1,0,0.0,682.0,1,prototype,32,1,1,1,1,0.375,low
176,101,9,2,8,1,1.0,459.0,1,prototype,33,2,2,2,2,0.375,low
177,101,10,2,8,1,1.0,548.0,1,prototype,34,2,2,2,2,0.375,low
178,101,11,2,1,0,0.0,633.0,1,prototype,35,1,1,1,1,0.375,low
179,101,12,2,1,0,0.0,670.0,1,prototype,36,1,1,1,1,0.375,low
180,101,13,2,1,0,0.0,468.0,1,prototype,37,1,1,1,1,0.375,low
181,101,14,2,4,1,1.0,675.0,1,rule follower,38,2,2,1,2,0.375,low
182,101,15,2,6,0,0.0,714.0,1,exception,39,1,2,2,1,0.375,low
183,101,16,2,6,0,0.0,593.0,1,exception,40,1,2,2,1,0.375,low
184,101,17,2,8,1,1.0,523.0,1,prototype,41,2,2,2,2,0.375,low
185,101,18,2,5,1,0.0,564.0,0,exception,42,1,1,2,2,0.375,low
186,101,19,2,1,0,1.0,614.0,0,prototype,43,1,1,1,1,0.375,low
187,101,20,2,3,0,1.0,596.0,0,rule follower,44,2,1,1,1,0.375,low
188,101,21,2,2,0,0.0,659.0,1,rule follower,45,1,2,1,1,0.375,low
189,101,22,2,8,1,1.0,886.0,1,prototype,46,2,2,2,2,0.375,low
190,101,23,2,5,1,0.0,791.0,0,exception,47,1,1,2,2,0.375,low
191,101,24,2,7,1,1.0,643.0,1,rule follower,48,2,1,2,2,0.375,low
288,102,1,1,2,0,,,0,rule follower,1,1,2,1,1,0.5,med
289,102,2,1,6,0,1.0,1261.0,0,exception,2,1,2,2,1,0.5,med
290,102,3,1,5,1,0.0,771.0,0,exception,3,1,1,2,2,0.5,med
291,102,4,1,8,1,0.0,941.0,0,prototype,4,2,2,2,2,0.5,med
292,102,5,1,8,1,,,0,prototype,5,2,2,2,2,0.5,med
293,102,6,1,6,0,0.0,1797.0,1,exception,6,1,2,2,1,0.5,med
294,102,7,1,5,1,1.0,1591.0,1,exception,7,1,1,2,2,0.5,med
295,102,8,1,4,1,0.0,2569.0,0,rule follower,8,2,2,1,2,0.5,med
296,102,9,1,1,0,0.0,1820.0,1,prototype,9,1,1,1,1,0.5,med
297,102,10,1,2,0,1.0,2455.0,0,rule follower,10,1,2,1,1,0.5,med
298,102,11,1,8,1,1.0,2172.0,1,prototype,11,2,2,2,2,0.5,med
299,102,12,1,1,0,1.0,1750.0,0,prototype,12,1,1,1,1,0.5,med
300,102,13,1,8,1,1.0,1357.0,1,prototype,13,2,2,2,2,0.5,med
301,102,14,1,1,0,0.0,1168.0,1,prototype,14,1,1,1,1,0.5,med
302,102,15,1,3,0,0.0,905.0,1,rule follower,15,2,1,1,1,0.5,med
303,102,16,1,7,1,0.0,1027.0,0,rule follower,16,2,1,2,2,0.5,med
304,102,17,1,7,1,1.0,2019.0,1,rule follower,17,2,1,2,2,0.5,med
305,102,18,1,8,1,1.0,1182.0,1,prototype,18,2,2,2,2,0.5,med
306,102,19,1,3,0,1.0,1301.0,0,rule follower,19,2,1,1,1,0.5,med
307,102,20,1,1,0,0.0,1569.0,1,prototype,20,1,1,1,1,0.5,med
308,102,21,1,4,1,1.0,922.0,1,rule follower,21,2,2,1,2,0.5,med
309,102,22,1,1,0,0.0,1764.0,1,prototype,22,1,1,1,1,0.5,med
310,102,23,1,8,1,1.0,1107.0,1,prototype,23,2,2,2,2,0.5,med
311,102,24,1,1,0,1.0,1813.0,0,prototype,24,1,1,1,1,0.5,med
312,102,1,2,6,0,1.0,1284.0,0,exception,25,1,2,2,1,0.5,med
313,102,2,2,8,1,1.0,1116.0,1,prototype,26,2,2,2,2,0.5,med
314,102,3,2,8,1,1.0,1430.0,1,prototype,27,2,2,2,2,0.5,med
315,102,4,2,4,1,1.0,931.0,1,rule follower,28,2,2,1,2,0.5,med
316,102,5,2,8,1,1.0,1021.0,1,prototype,29,2,2,2,2,0.5,med
317,102,6,2,3,0,0.0,1885.0,1,rule follower,30,2,1,1,1,0.5,med
318,102,7,2,8,1,1.0,1049.0,1,prototype,31,2,2,2,2,0.5,med
319,102,8,2,4,1,1.0,1044.0,1,rule follower,32,2,2,1,2,0.5,med
320,102,9,2,5,1,0.0,1637.0,0,exception,33,1,1,2,2,0.5,med
321,102,10,2,6,0,0.0,2260.0,1,exception,34,1,2,2,1,0.5,med
322,102,11,2,7,1,1.0,1242.0,1,rule follower,35,2,1,2,2,0.5,med
323,102,12,2,1,0,0.0,1307.0,1,prototype,36,1,1,1,1,0.5,med
324,102,13,2,1,0,0.0,1277.0,1,prototype,37,1,1,1,1,0.5,med
325,102,14,2,3,0,1.0,708.0,0,rule follower,38,2,1,1,1,0.5,med
326,102,15,2,1,0,0.0,979.0,1,prototype,39,1,1,1,1,0.5,med
327,102,16,2,2,0,1.0,1888.0,0,rule follower,40,1,2,1,1,0.5,med
328,102,17,2,1,0,0.0,1076.0,1,prototype,41,1,1,1,1,0.5,med
329,102,18,2,2,0,1.0,2060.0,0,rule follower,42,1,2,1,1,0.5,med
330,102,19,2,5,1,0.0,1280.0,0,exception,43,1,1,2,2,0.5,med
331,102,20,2,8,1,1.0,904.0,1,prototype,44,2,2,2,2,0.5,med
332,102,21,2,7,1,0.0,2032.0,0,rule follower,45,2,1,2,2,0.5,med
333,102,22,2,8,1,1.0,1115.0,1,prototype,46,2,2,2,2,0.5,med
334,102,23,2,1,0,0.0,2020.0,1,prototype,47,1,1,1,1,0.5,med
335,102,24,2,1,0,0.0,1020.0,1,prototype,48,1,1,1,1,0.5,med
432,103,1,1,2,0,1.0,1369.0,0,rule follower,1,2,1,1,1,0.0,low
433,103,2,1,7,1,1.0,1313.0,1,rule follower,2,1,2,2,2,0.0,low
434,103,3,1,1,0,1.0,1014.0,0,prototype,3,1,1,1,1,0.0,low
435,103,4,1,8,1,0.0,1511.0,0,prototype,4,2,2,2,2,0.0,low
436,103,5,1,3,0,1.0,765.0,0,rule follower,5,1,2,1,1,0.0,low
437,103,6,1,4,1,0.0,1398.0,0,rule follower,6,2,2,1,2,0.0,low
438,103,7,1,3,0,1.0,1014.0,0,rule follower,7,1,2,1,1,0.0,low
439,103,8,1,8,1,1.0,1054.0,1,prototype,8,2,2,2,2,0.0,low
440,103,9,1,1,0,1.0,1183.0,0,prototype,9,1,1,1,1,0.0,low
441,103,10,1,5,1,0.0,1273.0,0,exception,10,1,1,2,2,0.0,low
442,103,11,1,8,1,1.0,1442.0,1,prototype,11,2,2,2,2,0.0,low
443,103,12,1,4,1,1.0,1056.0,1,rule follower,12,2,2,1,2,0.0,low
444,103,13,1,6,0,1.0,777.0,0,exception,13,2,1,2,1,0.0,low
445,103,14,1,1,0,1.0,791.0,0,prototype,14,1,1,1,1,0.0,low
446,103,15,1,2,0,1.0,925.0,0,rule follower,15,2,1,1,1,0.0,low
447,103,16,1,8,1,1.0,893.0,1,prototype,16,2,2,2,2,0.0,low
448,103,17,1,8,1,0.0,703.0,0,prototype,17,2,2,2,2,0.0,low
449,103,18,1,5,1,1.0,733.0,1,exception,18,1,1,2,2,0.0,low
450,103,19,1,7,1,1.0,866.0,1,rule follower,19,1,2,2,2,0.0,low
451,103,20,1,1,0,1.0,734.0,0,prototype,20,1,1,1,1,0.0,low
452,103,21,1,8,1,1.0,900.0,1,prototype,21,2,2,2,2,0.0,low
453,103,22,1,1,0,0.0,1410.0,1,prototype,22,1,1,1,1,0.0,low
454,103,23,1,6,0,1.0,756.0,0,exception,23,2,1,2,1,0.0,low
455,103,24,1,1,0,0.0,1050.0,1,prototype,24,1,1,1,1,0.0,low
456,103,1,2,5,1,0.0,1274.0,0,exception,25,1,1,2,2,0.0,low
457,103,2,2,2,0,1.0,856.0,0,rule follower,26,2,1,1,1,0.0,low
458,103,3,2,8,1,1.0,1526.0,1,prototype,27,2,2,2,2,0.0,low
459,103,4,2,1,0,0.0,896.0,1,prototype,28,1,1,1,1,0.0,low
460,103,5,2,6,0,1.0,801.0,0,exception,29,2,1,2,1,0.0,low
461,103,6,2,8,1,1.0,1024.0,1,prototype,30,2,2,2,2,0.0,low
462,103,7,2,4,1,1.0,1230.0,1,rule follower,31,2,2,1,2,0.0,low
463,103,8,2,8,1,1.0,1496.0,1,prototype,32,2,2,2,2,0.0,low
464,103,9,2,4,1,1.0,953.0,1,rule follower,33,2,2,1,2,0.0,low
465,103,10,2,1,0,0.0,659.0,1,prototype,34,1,1,1,1,0.0,low
466,103,11,2,6,0,1.0,459.0,0,exception,35,2,1,2,1,0.0,low
467,103,12,2,5,1,0.0,516.0,0,exception,36,1,1,2,2,0.0,low
468,103,13,2,3,0,0.0,855.0,1,rule follower,37,1,2,1,1,0.0,low
469,103,14,2,8,1,1.0,898.0,1,prototype,38,2,2,2,2,0.0,low
470,103,15,2,1,0,0.0,889.0,1,prototype,39,1,1,1,1,0.0,low
471,103,16,2,7,1,0.0,983.0,0,rule follower,40,1,2,2,2,0.0,low
472,103,17,2,2,0,1.0,600.0,0,rule follower,41,2,1,1,1,0.0,low
473,103,18,2,8,1,1.0,891.0,1,prototype,42,2,2,2,2,0.0,low
474,103,19,2,1,0,0.0,882.0,1,prototype,43,1,1,1,1,0.0,low
475,103,20,2,8,1,1.0,651.0,1,prototype,44,2,2,2,2,0.0,low
476,103,21,2,1,0,0.0,841.0,1,prototype,45,1,1,1,1,0.0,low
477,103,22,2,7,1,0.0,822.0,0,rule follower,46,1,2,2,2,0.0,low
478,103,23,2,3,0,0.0,906.0,1,rule follower,47,1,2,1,1,0.0,low
479,103,24,2,1,0,0.0,962.0,1,prototype,48,1,1,1,1,0.0,low
576,104,1,1,1,0,,,0,prototype,1,1,1,1,1,0.75,high
577,104,2,1,7,1,0.0,1057.0,0,rule follower,2,2,2,1,2,0.75,high
578,104,3,1,5,1,1.0,2165.0,1,exception,3,2,1,1,2,0.75,high
579,104,4,1,8,1,0.0,1866.0,0,prototype,4,2,2,2,2,0.75,high
580,104,5,1,2,0,0.0,1395.0,1,rule follower,5,1,1,2,1,0.75,high
581,104,6,1,1,0,1.0,2317.0,0,prototype,6,1,1,1,1,0.75,high
582,104,7,1,8,1,1.0,1638.0,1,prototype,7,2,2,2,2,0.75,high
583,104,8,1,8,1,1.0,858.0,1,prototype,8,2,2,2,2,0.75,high
584,104,9,1,3,0,0.0,800.0,1,rule follower,9,1,2,1,1,0.75,high
585,104,10,1,7,1,1.0,889.0,1,rule follower,10,2,2,1,2,0.75,high
586,104,11,1,8,1,1.0,814.0,1,prototype,11,2,2,2,2,0.75,high
587,104,12,1,8,1,1.0,791.0,1,prototype,12,2,2,2,2,0.75,high
588,104,13,1,8,1,1.0,901.0,1,prototype,13,2,2,2,2,0.75,high
589,104,14,1,1,0,0.0,823.0,1,prototype,14,1,1,1,1,0.75,high
590,104,15,1,4,1,0.0,1083.0,0,rule follower,15,1,2,2,2,0.75,high
591,104,16,1,2,0,0.0,1509.0,1,rule follower,16,1,1,2,1,0.75,high
592,104,17,1,3,0,1.0,1616.0,0,rule follower,17,1,2,1,1,0.75,high
593,104,18,1,6,0,1.0,1440.0,0,exception,18,2,1,2,1,0.75,high
594,104,19,1,5,1,0.0,1079.0,0,exception,19,2,1,1,2,0.75,high
595,104,20,1,1,0,0.0,1904.0,1,prototype,20,1,1,1,1,0.75,high
596,104,21,1,1,0,0.0,1111.0,1,prototype,21,1,1,1,1,0.75,high
597,104,22,1,4,1,1.0,1586.0,1,rule follower,22,1,2,2,2,0.75,high
598,104,23,1,6,0,0.0,2030.0,1,exception,23,2,1,2,1,0.75,high
599,104,24,1,1,0,0.0,1341.0,1,prototype,24,1,1,1,1,0.75,high
600,104,1,2,1,0,0.0,880.0,1,prototype,25,1,1,1,1,0.75,high
601,104,2,2,4,1,1.0,745.0,1,rule follower,26,1,2,2,2,0.75,high
602,104,3,2,6,0,0.0,923.0,1,exception,27,2,1,2,1,0.75,high
603,104,4,2,5,1,0.0,712.0,0,exception,28,2,1,1,2,0.75,high
604,104,5,2,8,1,1.0,774.0,1,prototype,29,2,2,2,2,0.75,high
605,104,6,2,7,1,1.0,842.0,1,rule follower,30,2,2,1,2,0.75,high
606,104,7,2,5,1,1.0,891.0,1,exception,31,2,1,1,2,0.75,high
607,104,8,2,1,0,0.0,976.0,1,prototype,32,1,1,1,1,0.75,high
608,104,9,2,1,0,0.0,698.0,1,prototype,33,1,1,1,1,0.75,high
609,104,10,2,3,0,1.0,1285.0,0,rule follower,34,1,2,1,1,0.75,high
610,104,11,2,1,0,0.0,951.0,1,prototype,35,1,1,1,1,0.75,high
611,104,12,2,7,1,1.0,795.0,1,rule follower,36,2,2,1,2,0.75,high
612,104,13,2,8,1,1.0,1647.0,1,prototype,37,2,2,2,2,0.75,high
613,104,14,2,4,1,1.0,1905.0,1,rule follower,38,1,2,2,2,0.75,high
614,104,15,2,3,0,1.0,1728.0,0,rule follower,39,1,2,1,1,0.75,high
615,104,16,2,8,1,1.0,1037.0,1,prototype,40,2,2,2,2,0.75,high
616,104,17,2,2,0,0.0,857.0,1,rule follower,41,1,1,2,1,0.75,high
617,104,18,2,2,0,0.0,1138.0,1,rule follower,42,1,1,2,1,0.75,high
618,104,19,2,8,1,1.0,984.0,1,prototype,43,2,2,2,2,0.75,high
619,104,20,2,6,0,0.0,1486.0,1,exception,44,2,1,2,1,0.75,high
620,104,21,2,8,1,1.0,712.0,1,prototype,45,2,2,2,2,0.75,high
621,104,22,2,1,0,0.0,1073.0,1,prototype,46,1,1,1,1,0.75,high
622,104,23,2,1,0,0.0,1133.0,1,prototype,47,1,1,1,1,0.75,high
623,104,24,2,8,1,1.0,698.0,1,prototype,48,2,2,2,2,0.75,high
720,105,1,1,1,0,1.0,924.0,0,prototype,1,1,1,1,1,0.125,low
721,105,2,1,1,0,1.0,314.0,0,prototype,2,1,1,1,1,0.125,low
722,105,3,1,1,0,0.0,650.0,1,prototype,3,1,1,1,1,0.125,low
723,105,4,1,1,0,0.0,819.0,1,prototype,4,1,1,1,1,0.125,low
724,105,5,1,4,1,,,0,rule follower,5,1,2,2,2,0.125,low
725,105,6,1,3,0,1.0,475.0,0,rule follower,6,1,2,1,1,0.125,low
726,105,7,1,2,0,0.0,332.0,1,rule follower,7,1,1,2,1,0.125,low
727,105,8,1,1,0,0.0,894.0,1,prototype,8,1,1,1,1,0.125,low
728,105,9,1,8,1,1.0,2463.0,1,prototype,9,2,2,2,2,0.125,low
729,105,10,1,5,1,,,0,exception,10,2,1,1,2,0.125,low
730,105,11,1,8,1,1.0,2441.0,1,prototype,11,2,2,2,2,0.125,low
731,105,12,1,6,0,0.0,1016.0,1,exception,12,2,1,2,1,0.125,low
732,105,13,1,8,1,0.0,1851.0,0,prototype,13,2,2,2,2,0.125,low
733,105,14,1,2,0,0.0,1303.0,1,rule follower,14,1,1,2,1,0.125,low
734,105,15,1,8,1,1.0,631.0,1,prototype,15,2,2,2,2,0.125,low
735,105,16,1,7,1,1.0,905.0,1,rule follower,16,2,2,1,2,0.125,low
736,105,17,1,8,1,1.0,768.0,1,prototype,17,2,2,2,2,0.125,low
737,105,18,1,7,1,1.0,1082.0,1,rule follower,18,2,2,1,2,0.125,low
738,105,19,1,8,1,1.0,968.0,1,prototype,19,2,2,2,2,0.125,low
739,105,20,1,5,1,0.0,1389.0,0,exception,20,2,1,1,2,0.125,low
740,105,21,1,4,1,1.0,1575.0,1,rule follower,21,1,2,2,2,0.125,low
741,105,22,1,3,0,1.0,1328.0,0,rule follower,22,1,2,1,1,0.125,low
742,105,23,1,1,0,0.0,1670.0,1,prototype,23,1,1,1,1,0.125,low
743,105,24,1,6,0,1.0,1135.0,0,exception,24,2,1,2,1,0.125,low
744,105,1,2,7,1,0.0,2195.0,0,rule follower,25,2,2,1,2,0.125,low
745,105,2,2,6,0,0.0,858.0,1,exception,26,2,1,2,1,0.125,low
746,105,3,2,1,0,1.0,1328.0,0,prototype,27,1,1,1,1,0.125,low
747,105,4,2,1,0,0.0,943.0,1,prototype,28,1,1,1,1,0.125,low
748,105,5,2,4,1,0.0,1967.0,0,rule follower,29,1,2,2,2,0.125,low
749,105,6,2,3,0,1.0,827.0,0,rule follower,30,1,2,1,1,0.125,low
750,105,7,2,2,0,0.0,1279.0,1,rule follower,31,1,1,2,1,0.125,low
751,105,8,2,8,1,1.0,2332.0,1,prototype,32,2,2,2,2,0.125,low
752,105,9,2,8,1,1.0,1173.0,1,prototype,33,2,2,2,2,0.125,low
753,105,10,2,1,0,1.0,1581.0,0,prototype,34,1,1,1,1,0.125,low
754,105,11,2,1,0,0.0,1394.0,1,prototype,35,1,1,1,1,0.125,low
755,105,12,2,3,0,1.0,1398.0,0,rule follower,36,1,2,1,1,0.125,low
756,105,13,2,7,1,0.0,1929.0,0,rule follower,37,2,2,1,2,0.125,low
757,105,14,2,6,0,1.0,666.0,0,exception,38,2,1,2,1,0.125,low
758,105,15,2,1,0,0.0,2166.0,1,prototype,39,1,1,1,1,0.125,low
759,105,16,2,2,0,0.0,942.0,1,rule follower,40,1,1,2,1,0.125,low
760,105,17,2,1,0,0.0,666.0,1,prototype,41,1,1,1,1,0.125,low
761,105,18,2,8,1,1.0,1823.0,1,prototype,42,2,2,2,2,0.125,low
762,105,19,2,8,1,1.0,1548.0,1,prototype,43,2,2,2,2,0.125,low
763,105,20,2,5,1,0.0,1427.0,0,exception,44,2,1,1,2,0.125,low
764,105,21,2,5,1,0.0,1167.0,0,exception,45,2,1,1,2,0.125,low
765,105,22,2,4,1,1.0,228.0,1,rule follower,46,1,2,2,2,0.125,low
766,105,23,2,8,1,1.0,2142.0,1,prototype,47,2,2,2,2,0.125,low
767,105,24,2,8,1,1.0,892.0,1,prototype,48,2,2,2,2,0.125,low
864,107,1,1,1,0,,,0,prototype,1,1,1,1,1,0.625,high
865,107,2,1,3,0,1.0,811.0,0,rule follower,2,1,1,2,1,0.625,high
866,107,3,1,7,1,0.0,546.0,0,rule follower,3,2,1,2,2,0.625,high
867,107,4,1,5,1,1.0,779.0,1,exception,4,2,1,1,2,0.625,high
868,107,5,1,1,0,0.0,872.0,1,prototype,5,1,1,1,1,0.625,high
869,107,6,1,1,0,0.0,542.0,1,prototype,6,1,1,1,1,0.625,high
870,107,7,1,2,0,0.0,553.0,1,rule follower,7,1,2,1,1,0.625,high
871,107,8,1,1,0,0.0,828.0,1,prototype,8,1,1,1,1,0.625,high
872,107,9,1,8,1,1.0,762.0,1,prototype,9,2,2,2,2,0.625,high
873,107,10,1,8,1,1.0,514.0,1,prototype,10,2,2,2,2,0.625,high
874,107,11,1,8,1,1.0,687.0,1,prototype,11,2,2,2,2,0.625,high
875,107,12,1,5,1,1.0,531.0,1,exception,12,2,1,1,2,0.625,high
876,107,13,1,4,1,0.0,485.0,0,rule follower,13,1,2,2,2,0.625,high
877,107,14,1,7,1,0.0,697.0,0,rule follower,14,2,1,2,2,0.625,high
878,107,15,1,6,0,1.0,865.0,0,exception,15,2,2,1,1,0.625,high
879,107,16,1,8,1,0.0,853.0,0,prototype,16,2,2,2,2,0.625,high
880,107,17,1,2,0,0.0,1114.0,1,rule follower,17,1,2,1,1,0.625,high
881,107,18,1,1,0,0.0,822.0,1,prototype,18,1,1,1,1,0.625,high
882,107,19,1,1,0,0.0,693.0,1,prototype,19,1,1,1,1,0.625,high
883,107,20,1,8,1,1.0,998.0,1,prototype,20,2,2,2,2,0.625,high
884,107,21,1,3,0,0.0,806.0,1,rule follower,21,1,1,2,1,0.625,high
885,107,22,1,4,1,0.0,1125.0,0,rule follower,22,1,2,2,2,0.625,high
886,107,23,1,6,0,1.0,912.0,0,exception,23,2,2,1,1,0.625,high
887,107,24,1,8,1,1.0,985.0,1,prototype,24,2,2,2,2,0.625,high
888,107,1,2,6,0,1.0,2659.0,0,exception,25,2,2,1,1,0.625,high
889,107,2,2,6,0,1.0,1188.0,0,exception,26,2,2,1,1,0.625,high
890,107,3,2,8,1,0.0,957.0,0,prototype,27,2,2,2,2,0.625,high
891,107,4,2,8,1,1.0,1146.0,1,prototype,28,2,2,2,2,0.625,high
892,107,5,2,1,0,0.0,807.0,1,prototype,29,1,1,1,1,0.625,high
893,107,6,2,2,0,0.0,1226.0,1,rule follower,30,1,2,1,1,0.625,high
894,107,7,2,1,0,0.0,761.0,1,prototype,31,1,1,1,1,0.625,high
895,107,8,2,7,1,1.0,787.0,1,rule follower,32,2,1,2,2,0.625,high
896,107,9,2,5,1,1.0,707.0,1,exception,33,2,1,1,2,0.625,high
897,107,10,2,3,0,0.0,927.0,1,rule follower,34,1,1,2,1,0.625,high
898,107,11,2,8,1,1.0,1192.0,1,prototype,35,2,2,2,2,0.625,high
899,107,12,2,2,0,0.0,617.0,1,rule follower,36,1,2,1,1,0.625,high
900,107,13,2,4,1,0.0,607.0,0,rule follower,37,1,2,2,2,0.625,high
901,107,14,2,8,1,0.0,850.0,0,prototype,38,2,2,2,2,0.625,high
902,107,15,2,7,1,0.0,889.0,0,rule follower,39,2,1,2,2,0.625,high
903,107,16,2,1,0,0.0,563.0,1,prototype,40,1,1,1,1,0.625,high
904,107,17,2,8,1,1.0,736.0,1,prototype,41,2,2,2,2,0.625,high
905,107,18,2,8,1,1.0,1092.0,1,prototype,42,2,2,2,2,0.625,high
906,107,19,2,3,0,0.0,654.0,1,rule follower,43,1,1,2,1,0.625,high
907,107,20,2,4,1,0.0,555.0,0,rule follower,44,1,2,2,2,0.625,high
908,107,21,2,5,1,1.0,785.0,1,exception,45,2,1,1,2,0.625,high
909,107,22,2,1,0,0.0,717.0,1,prototype,46,1,1,1,1,0.625,high
910,107,23,2,1,0,0.0,492.0,1,prototype,47,1,1,1,1,0.625,high
911,107,24,2,1,0,0.0,526.0,1,prototype,48,1,1,1,1,0.625,high
1008,108,1,2,7,1,,,0,rule follower,25,2,2,1,2,0.125,low
1009,108,2,2,2,0,1.0,1278.0,0,rule follower,26,1,1,2,1,0.125,low
1010,108,3,2,4,1,0.0,197.0,0,rule follower,27,2,1,2,2,0.125,low
1011,108,4,2,3,0,1.0,324.0,0,rule follower,28,2,1,1,1,0.125,low
1012,108,5,2,8,1,1.0,666.0,1,prototype,29,2,2,2,2,0.125,low
1013,108,6,2,5,1,0.0,89.0,0,exception,30,1,2,1,2,0.125,low
1014,108,7,2,6,0,,,0,exception,31,1,2,2,1,0.125,low
1015,108,8,2,1,0,1.0,607.0,0,prototype,32,1,1,1,1,0.125,low
1016,108,9,2,5,1,0.0,2234.0,0,exception,33,1,2,1,2,0.125,low
1017,108,10,2,6,0,1.0,287.0,0,exception,34,1,2,2,1,0.125,low
1018,108,11,2,1,0,1.0,606.0,0,prototype,35,1,1,1,1,0.125,low
1019,108,12,2,8,1,,,0,prototype,36,2,2,2,2,0.125,low
1020,108,13,2,1,0,1.0,701.0,0,prototype,37,1,1,1,1,0.125,low
1021,108,14,2,8,1,,,0,prototype,38,2,2,2,2,0.125,low
1022,108,15,2,8,1,1.0,1282.0,1,prototype,39,2,2,2,2,0.125,low
1023,108,16,2,1,0,1.0,442.0,0,prototype,40,1,1,1,1,0.125,low
1024,108,17,2,8,1,1.0,771.0,1,prototype,41,2,2,2,2,0.125,low
1025,108,18,2,1,0,,,0,prototype,42,1,1,1,1,0.125,low
1026,108,19,2,4,1,,,0,rule follower,43,2,1,2,2,0.125,low
1027,108,20,2,3,0,1.0,2036.0,0,rule follower,44,2,1,1,1,0.125,low
1028,108,21,2,7,1,0.0,365.0,0,rule follower,45,2,2,1,2,0.125,low
1029,108,22,2,1,0,0.0,2400.0,1,prototype,46,1,1,1,1,0.125,low
1030,108,23,2,2,0,0.0,329.0,1,rule follower,47,1,1,2,1,0.125,low
1031,108,24,2,8,1,1.0,2370.0,1,prototype,48,2,2,2,2,0.125,low
1128,109,1,1,6,0,1.0,893.0,0,exception,1,1,2,2,1,0.375,low
1129,109,2,1,4,1,0.0,376.0,0,rule follower,2,2,1,2,2,0.375,low
1130,109,3,1,8,1,1.0,1015.0,1,prototype,3,2,2,2,2,0.375,low
1131,109,4,1,8,1,0.0,880.0,0,prototype,4,2,2,2,2,0.375,low
1132,109,5,1,1,0,0.0,897.0,1,prototype,5,1,1,1,1,0.375,low
1133,109,6,1,3,0,1.0,489.0,0,rule follower,6,2,1,1,1,0.375,low
1134,109,7,1,1,0,0.0,696.0,1,prototype,7,1,1,1,1,0.375,low
1135,109,8,1,2,0,0.0,549.0,1,rule follower,8,1,1,2,1,0.375,low
1136,109,9,1,8,1,1.0,636.0,1,prototype,9,2,2,2,2,0.375,low
1137,109,10,1,1,0,0.0,703.0,1,prototype,10,1,1,1,1,0.375,low
1138,109,11,1,8,1,1.0,970.0,1,prototype,11,2,2,2,2,0.375,low
1139,109,12,1,5,1,0.0,574.0,0,exception,12,1,2,1,2,0.375,low
1140,109,13,1,4,1,1.0,1176.0,1,rule follower,13,2,1,2,2,0.375,low
1141,109,14,1,5,1,0.0,554.0,0,exception,14,1,2,1,2,0.375,low
1142,109,15,1,6,0,1.0,725.0,0,exception,15,1,2,2,1,0.375,low
1143,109,16,1,1,0,1.0,662.0,0,prototype,16,1,1,1,1,0.375,low
1144,109,17,1,8,1,1.0,710.0,1,prototype,17,2,2,2,2,0.375,low
1145,109,18,1,3,0,1.0,698.0,0,rule follower,18,2,1,1,1,0.375,low
1146,109,19,1,7,1,0.0,1110.0,0,rule follower,19,2,2,1,2,0.375,low
1147,109,20,1,2,0,1.0,909.0,0,rule follower,20,1,1,2,1,0.375,low
1148,109,21,1,1,0,0.0,584.0,1,prototype,21,1,1,1,1,0.375,low
1149,109,22,1,7,1,1.0,679.0,1,rule follower,22,2,2,1,2,0.375,low
1150,109,23,1,1,0,0.0,525.0,1,prototype,23,1,1,1,1,0.375,low
1151,109,24,1,8,1,1.0,742.0,1,prototype,24,2,2,2,2,0.375,low
1152,109,1,2,4,1,1.0,669.0,1,rule follower,25,2,1,2,2,0.375,low
1153,109,2,2,1,0,0.0,449.0,1,prototype,26,1,1,1,1,0.375,low
1154,109,3,2,1,0,0.0,494.0,1,prototype,27,1,1,1,1,0.375,low
1155,109,4,2,1,0,0.0,492.0,1,prototype,28,1,1,1,1,0.375,low
1156,109,5,2,6,0,0.0,470.0,1,exception,29,1,2,2,1,0.375,low
1157,109,6,2,2,0,0.0,341.0,1,rule follower,30,1,1,2,1,0.375,low
1158,109,7,2,1,0,0.0,452.0,1,prototype,31,1,1,1,1,0.375,low
1159,109,8,2,8,1,1.0,537.0,1,prototype,32,2,2,2,2,0.375,low
1160,109,9,2,2,0,0.0,542.0,1,rule follower,33,1,1,2,1,0.375,low
1161,109,10,2,8,1,1.0,406.0,1,prototype,34,2,2,2,2,0.375,low
1162,109,11,2,3,0,1.0,664.0,0,rule follower,35,2,1,1,1,0.375,low
1163,109,12,2,4,1,0.0,664.0,0,rule follower,36,2,1,2,2,0.375,low
1164,109,13,2,1,0,0.0,554.0,1,prototype,37,1,1,1,1,0.375,low
1165,109,14,2,8,1,1.0,616.0,1,prototype,38,2,2,2,2,0.375,low
1166,109,15,2,6,0,0.0,537.0,1,exception,39,1,2,2,1,0.375,low
1167,109,16,2,8,1,0.0,745.0,0,prototype,40,2,2,2,2,0.375,low
1168,109,17,2,8,1,1.0,713.0,1,prototype,41,2,2,2,2,0.375,low
1169,109,18,2,7,1,1.0,574.0,1,rule follower,42,2,2,1,2,0.375,low
1170,109,19,2,5,1,0.0,555.0,0,exception,43,1,2,1,2,0.375,low
1171,109,20,2,1,0,0.0,640.0,1,prototype,44,1,1,1,1,0.375,low
1172,109,21,2,8,1,1.0,778.0,1,prototype,45,2,2,2,2,0.375,low
1173,109,22,2,3,0,1.0,616.0,0,rule follower,46,2,1,1,1,0.375,low
1174,109,23,2,7,1,1.0,697.0,1,rule follower,47,2,2,1,2,0.375,low
1175,109,24,2,5,1,0.0,759.0,0,exception,48,1,2,1,2,0.375,low
1272,110,1,1,1,0,1.0,2563.0,0,prototype,1,1,1,1,1,0.4,low
1273,110,2,1,3,0,0.0,1666.0,1,rule follower,2,1,1,2,1,0.4,low
1274,110,3,1,6,0,0.0,707.0,1,exception,3,2,2,1,1,0.4,low
1275,110,4,1,5,1,0.0,791.0,0,exception,4,2,1,1,2,0.4,low
1276,110,5,1,1,0,0.0,2528.0,1,prototype,5,1,1,1,1,0.4,low
1277,110,6,1,7,1,1.0,1204.0,1,rule follower,6,2,1,2,2,0.4,low
1278,110,7,1,8,1,1.0,971.0,1,prototype,7,2,2,2,2,0.4,low
1279,110,8,1,1,0,0.0,814.0,1,prototype,8,1,1,1,1,0.4,low
1280,110,9,1,7,1,1.0,841.0,1,rule follower,9,2,1,2,2,0.4,low
1281,110,10,1,5,1,1.0,942.0,1,exception,10,2,1,1,2,0.4,low
1282,110,11,1,8,1,1.0,883.0,1,prototype,11,2,2,2,2,0.4,low
1283,110,12,1,6,0,1.0,791.0,0,exception,12,2,2,1,1,0.4,low
1284,110,13,1,8,1,0.0,1516.0,0,prototype,13,2,2,2,2,0.4,low
1285,110,14,1,4,1,0.0,1135.0,0,rule follower,14,1,2,2,2,0.4,low
1286,110,15,1,2,0,1.0,1598.0,0,rule follower,15,1,2,1,1,0.4,low
1287,110,16,1,8,1,,,0,prototype,16,2,2,2,2,0.4,low
1288,110,17,1,4,1,0.0,1656.0,0,rule follower,17,1,2,2,2,0.4,low
1289,110,18,1,3,0,1.0,1366.0,0,rule follower,18,1,1,2,1,0.4,low
1290,110,19,1,1,0,0.0,1416.0,1,prototype,19,1,1,1,1,0.4,low
1291,110,20,1,1,0,0.0,1595.0,1,prototype,20,1,1,1,1,0.4,low
1292,110,21,1,8,1,1.0,935.0,1,prototype,21,2,2,2,2,0.4,low
1293,110,22,1,1,0,0.0,953.0,1,prototype,22,1,1,1,1,0.4,low
1294,110,23,1,2,0,0.0,1123.0,1,rule follower,23,1,2,1,1,0.4,low
1295,110,24,1,8,1,1.0,1078.0,1,prototype,24,2,2,2,2,0.4,low
1296,110,1,2,1,0,0.0,948.0,1,prototype,25,1,1,1,1,0.4,low
1297,110,2,2,8,1,1.0,903.0,1,prototype,26,2,2,2,2,0.4,low
1298,110,3,2,2,0,0.0,768.0,1,rule follower,27,1,2,1,1,0.4,low
1299,110,4,2,1,0,0.0,2267.0,1,prototype,28,1,1,1,1,0.4,low
1300,110,5,2,8,1,1.0,752.0,1,prototype,29,2,2,2,2,0.4,low
1301,110,6,2,2,0,0.0,835.0,1,rule follower,30,1,2,1,1,0.4,low
1302,110,7,2,1,0,0.0,1356.0,1,prototype,31,1,1,1,1,0.4,low
1303,110,8,2,3,0,0.0,872.0,1,rule follower,32,1,1,2,1,0.4,low
1304,110,9,2,8,1,1.0,792.0,1,prototype,33,2,2,2,2,0.4,low
1305,110,10,2,7,1,1.0,981.0,1,rule follower,34,2,1,2,2,0.4,low
1306,110,11,2,5,1,1.0,788.0,1,exception,35,2,1,1,2,0.4,low
1307,110,12,2,7,1,1.0,578.0,1,rule follower,36,2,1,2,2,0.4,low
1308,110,13,2,8,1,1.0,764.0,1,prototype,37,2,2,2,2,0.4,low
1309,110,14,2,1,0,0.0,695.0,1,prototype,38,1,1,1,1,0.4,low
1310,110,15,2,4,1,0.0,764.0,0,rule follower,39,1,2,2,2,0.4,low
1311,110,16,2,6,0,0.0,1282.0,1,exception,40,2,2,1,1,0.4,low
1312,110,17,2,1,0,1.0,722.0,0,prototype,41,1,1,1,1,0.4,low
1313,110,18,2,4,1,0.0,1573.0,0,rule follower,42,1,2,2,2,0.4,low
1314,110,19,2,8,1,1.0,2391.0,1,prototype,43,2,2,2,2,0.4,low
1315,110,20,2,6,0,1.0,1023.0,0,exception,44,2,2,1,1,0.4,low
1316,110,21,2,1,0,0.0,1346.0,1,prototype,45,1,1,1,1,0.4,low
1317,110,22,2,8,1,1.0,1083.0,1,prototype,46,2,2,2,2,0.4,low
1318,110,23,2,5,1,1.0,966.0,1,exception,47,2,1,1,2,0.4,low
1319,110,24,2,3,0,0.0,1151.0,1,rule follower,48,1,1,2,1,0.4,low
1396,111,1,1,8,1,1.0,1562.0,1,prototype,1,2,2,2,2,0.5,med
1397,111,2,1,5,1,0.0,1414.0,0,exception,2,1,2,1,2,0.5,med
1398,111,3,1,8,1,1.0,1290.0,1,prototype,3,2,2,2,2,0.5,med
1399,111,4,1,4,1,1.0,1390.0,1,rule follower,4,2,1,2,2,0.5,med
1400,111,5,1,1,0,1.0,1430.0,0,prototype,5,1,1,1,1,0.5,med
1401,111,6,1,1,0,0.0,1171.0,1,prototype,6,1,1,1,1,0.5,med
1402,111,7,1,8,1,1.0,839.0,1,prototype,7,2,2,2,2,0.5,med
1403,111,8,1,2,0,1.0,973.0,0,rule follower,8,2,1,1,1,0.5,med
1404,111,9,1,8,1,1.0,1679.0,1,prototype,9,2,2,2,2,0.5,med
1405,111,10,1,1,0,0.0,2188.0,1,prototype,10,1,1,1,1,0.5,med
1406,111,11,1,1,0,0.0,1398.0,1,prototype,11,1,1,1,1,0.5,med
1407,111,12,1,7,1,1.0,1081.0,1,rule follower,12,1,2,2,2,0.5,med
1408,111,13,1,3,0,0.0,736.0,1,rule follower,13,1,1,2,1,0.5,med
1409,111,14,1,5,1,1.0,545.0,1,exception,14,1,2,1,2,0.5,med
1410,111,15,1,8,1,1.0,1120.0,1,prototype,15,2,2,2,2,0.5,med
1411,111,16,1,1,0,0.0,802.0,1,prototype,16,1,1,1,1,0.5,med
1412,111,17,1,1,0,0.0,830.0,1,prototype,17,1,1,1,1,0.5,med
1413,111,18,1,7,1,1.0,833.0,1,rule follower,18,1,2,2,2,0.5,med
1414,111,19,1,6,0,1.0,828.0,0,exception,19,2,2,1,1,0.5,med
1415,111,20,1,3,0,0.0,2008.0,1,rule follower,20,1,1,2,1,0.5,med
1416,111,21,1,2,0,0.0,1328.0,1,rule follower,21,2,1,1,1,0.5,med
1417,111,22,1,6,0,0.0,2724.0,1,exception,22,2,2,1,1,0.5,med
1418,111,23,1,8,1,,,0,prototype,23,2,2,2,2,0.5,med
1419,111,24,1,4,1,0.0,1449.0,0,rule follower,24,2,1,2,2,0.5,med
1420,111,1,2,2,0,0.0,1073.0,1,rule follower,25,2,1,1,1,0.5,med
1421,111,2,2,6,0,0.0,1814.0,1,exception,26,2,2,1,1,0.5,med
1422,111,3,2,5,1,1.0,1259.0,1,exception,27,1,2,1,2,0.5,med
1423,111,4,2,7,1,1.0,971.0,1,rule follower,28,1,2,2,2,0.5,med
1424,111,5,2,8,1,0.0,1113.0,0,prototype,29,2,2,2,2,0.5,med
1425,111,6,2,7,1,1.0,1525.0,1,rule follower,30,1,2,2,2,0.5,med
1426,111,7,2,1,0,0.0,968.0,1,prototype,31,1,1,1,1,0.5,med
1427,111,8,2,5,1,1.0,1822.0,1,exception,32,1,2,1,2,0.5,med
1428,111,9,2,6,0,0.0,2643.0,1,exception,33,2,2,1,1,0.5,med
1429,111,10,2,1,0,0.0,1201.0,1,prototype,34,1,1,1,1,0.5,med
1430,111,11,2,3,0,0.0,1016.0,1,rule follower,35,1,1,2,1,0.5,med
1431,111,12,2,4,1,0.0,1053.0,0,rule follower,36,2,1,2,2,0.5,med
1432,111,13,2,8,1,1.0,2581.0,1,prototype,37,2,2,2,2,0.5,med
1433,111,14,2,1,0,0.0,981.0,1,prototype,38,1,1,1,1,0.5,med
1434,111,15,2,1,0,0.0,802.0,1,prototype,39,1,1,1,1,0.5,med
1435,111,16,2,8,1,0.0,1928.0,0,prototype,40,2,2,2,2,0.5,med
1436,111,17,2,3,0,0.0,829.0,1,rule follower,41,1,1,2,1,0.5,med
1437,111,18,2,1,0,0.0,1091.0,1,prototype,42,1,1,1,1,0.5,med
1438,111,19,2,8,1,1.0,2136.0,1,prototype,43,2,2,2,2,0.5,med
1439,111,20,2,8,1,0.0,2639.0,0,prototype,44,2,2,2,2,0.5,med
1440,111,21,2,2,0,0.0,2807.0,1,rule follower,45,2,1,1,1,0.5,med
1441,111,22,2,4,1,0.0,2125.0,0,rule follower,46,2,1,2,2,0.5,med
1442,111,23,2,1,0,0.0,1097.0,1,prototype,47,1,1,1,1,0.5,med
1443,111,24,2,8,1,0.0,2383.0,0,prototype,48,2,2,2,2,0.5,med
1540,112,1,1,8,1,,,0,prototype,1,2,2,2,2,0.375,low
1541,112,2,1,2,0,,,0,rule follower,2,1,1,2,1,0.375,low
1542,112,3,1,7,1,,,0,rule follower,3,2,2,1,2,0.375,low
1543,112,4,1,8,1,,,0,prototype,4,2,2,2,2,0.375,low
1544,112,5,1,1,0,,,0,prototype,5,1,1,1,1,0.375,low
1545,112,6,1,3,0,,,0,rule follower,6,1,2,1,1,0.375,low
1546,112,7,1,1,0,,,0,prototype,7,1,1,1,1,0.375,low
1547,112,8,1,5,1,,,0,exception,8,2,1,1,2,0.375,low
1548,112,9,1,6,0,,,0,exception,9,2,1,2,1,0.375,low
1549,112,10,1,8,1,,,0,prototype,10,2,2,2,2,0.375,low
1550,112,11,1,6,0,1.0,830.0,0,exception,11,2,1,2,1,0.375,low
1551,112,12,1,7,1,0.0,531.0,0,rule follower,12,2,2,1,2,0.375,low
1552,112,13,1,8,1,1.0,1130.0,1,prototype,13,2,2,2,2,0.375,low
1553,112,14,1,4,1,0.0,892.0,0,rule follower,14,1,2,2,2,0.375,low
1554,112,15,1,1,0,0.0,1290.0,1,prototype,15,1,1,1,1,0.375,low
1555,112,16,1,3,0,1.0,730.0,0,rule follower,16,1,2,1,1,0.375,low
1556,112,17,1,8,1,1.0,1346.0,1,prototype,17,2,2,2,2,0.375,low
1557,112,18,1,2,0,0.0,627.0,1,rule follower,18,1,1,2,1,0.375,low
1558,112,19,1,1,0,0.0,769.0,1,prototype,19,1,1,1,1,0.375,low
1559,112,20,1,5,1,1.0,1198.0,1,exception,20,2,1,1,2,0.375,low
1560,112,21,1,1,0,0.0,1943.0,1,prototype,21,1,1,1,1,0.375,low
1561,112,22,1,8,1,1.0,806.0,1,prototype,22,2,2,2,2,0.375,low
1562,112,23,1,4,1,1.0,1586.0,1,rule follower,23,1,2,2,2,0.375,low
1563,112,24,1,1,0,0.0,1751.0,1,prototype,24,1,1,1,1,0.375,low
1564,112,1,2,7,1,1.0,1270.0,1,rule follower,25,2,2,1,2,0.375,low
1565,112,2,2,2,0,0.0,848.0,1,rule follower,26,1,1,2,1,0.375,low
1566,112,3,2,8,1,1.0,557.0,1,prototype,27,2,2,2,2,0.375,low
1567,112,4,2,8,1,1.0,843.0,1,prototype,28,2,2,2,2,0.375,low
1568,112,5,2,1,0,0.0,783.0,1,prototype,29,1,1,1,1,0.375,low
1569,112,6,2,4,1,1.0,669.0,1,rule follower,30,1,2,2,2,0.375,low
1570,112,7,2,5,1,0.0,725.0,0,exception,31,2,1,1,2,0.375,low
1571,112,8,2,4,1,1.0,1174.0,1,rule follower,32,1,2,2,2,0.375,low
1572,112,9,2,2,0,0.0,2648.0,1,rule follower,33,1,1,2,1,0.375,low
1573,112,10,2,6,0,1.0,1596.0,0,exception,34,2,1,2,1,0.375,low
1574,112,11,2,3,0,1.0,921.0,0,rule follower,35,1,2,1,1,0.375,low
1575,112,12,2,7,1,1.0,874.0,1,rule follower,36,2,2,1,2,0.375,low
1576,112,13,2,3,0,1.0,2132.0,0,rule follower,37,1,2,1,1,0.375,low
1577,112,14,2,8,1,1.0,1086.0,1,prototype,38,2,2,2,2,0.375,low
1578,112,15,2,1,0,0.0,1723.0,1,prototype,39,1,1,1,1,0.375,low
1579,112,16,2,6,0,1.0,1764.0,0,exception,40,2,1,2,1,0.375,low
1580,112,17,2,8,1,1.0,874.0,1,prototype,41,2,2,2,2,0.375,low
1581,112,18,2,8,1,1.0,1570.0,1,prototype,42,2,2,2,2,0.375,low
1582,112,19,2,1,0,0.0,2379.0,1,prototype,43,1,1,1,1,0.375,low
1583,112,20,2,5,1,0.0,1734.0,0,exception,44,2,1,1,2,0.375,low
1584,112,21,2,1,0,0.0,1175.0,1,prototype,45,1,1,1,1,0.375,low
1585,112,22,2,1,0,0.0,1556.0,1,prototype,46,1,1,1,1,0.375,low
1586,112,23,2,1,0,0.0,896.0,1,prototype,47,1,1,1,1,0.375,low
1587,112,24,2,8,1,1.0,1082.0,1,prototype,48,2,2,2,2,0.375,low
1684,113,1,1,2,0,,,0,rule follower,1,1,1,2,1,0.625,high
1685,113,2,1,8,1,,,0,prototype,2,2,2,2,2,0.625,high
1686,113,3,1,8,1,0.0,1517.0,0,prototype,3,2,2,2,2,0.625,high
1687,113,4,1,5,1,0.0,1571.0,0,exception,4,1,2,1,2,0.625,high
1688,113,5,1,6,0,1.0,886.0,0,exception,5,1,2,2,1,0.625,high
1689,113,6,1,4,1,1.0,1509.0,1,rule follower,6,2,1,2,2,0.625,high
1690,113,7,1,1,0,0.0,1817.0,1,prototype,7,1,1,1,1,0.625,high
1691,113,8,1,1,0,0.0,1035.0,1,prototype,8,1,1,1,1,0.625,high
1692,113,9,1,7,1,0.0,2516.0,0,rule follower,9,2,2,1,2,0.625,high
1693,113,10,1,7,1,1.0,1882.0,1,rule follower,10,2,2,1,2,0.625,high
1694,113,11,1,6,0,,,0,exception,11,1,2,2,1,0.625,high
1695,113,12,1,1,0,0.0,2085.0,1,prototype,12,1,1,1,1,0.625,high
1696,113,13,1,8,1,0.0,2204.0,0,prototype,13,2,2,2,2,0.625,high
1697,113,14,1,4,1,,,0,rule follower,14,2,1,2,2,0.625,high
1698,113,15,1,1,0,0.0,1188.0,1,prototype,15,1,1,1,1,0.625,high
1699,113,16,1,8,1,0.0,1260.0,0,prototype,16,2,2,2,2,0.625,high
1700,113,17,1,8,1,0.0,2022.0,0,prototype,17,2,2,2,2,0.625,high
1701,113,18,1,1,0,0.0,1215.0,1,prototype,18,1,1,1,1,0.625,high
1702,113,19,1,2,0,1.0,1484.0,0,rule follower,19,1,1,2,1,0.625,high
1703,113,20,1,3,0,0.0,1243.0,1,rule follower,20,2,1,1,1,0.625,high
1704,113,21,1,5,1,0.0,1185.0,0,exception,21,1,2,1,2,0.625,high
1705,113,22,1,8,1,1.0,1270.0,1,prototype,22,2,2,2,2,0.625,high
1706,113,23,1,3,0,,,0,rule follower,23,2,1,1,1,0.625,high
1707,113,24,1,1,0,1.0,1622.0,0,prototype,24,1,1,1,1,0.625,high
1708,113,1,2,6,0,1.0,1606.0,0,exception,25,1,2,2,1,0.625,high
1709,113,2,2,1,0,0.0,1459.0,1,prototype,26,1,1,1,1,0.625,high
1710,113,3,2,1,0,0.0,2574.0,1,prototype,27,1,1,1,1,0.625,high
1711,113,4,2,3,0,1.0,2316.0,0,rule follower,28,2,1,1,1,0.625,high
1712,113,5,2,6,0,1.0,917.0,0,exception,29,1,2,2,1,0.625,high
1713,113,6,2,8,1,0.0,1016.0,0,prototype,30,2,2,2,2,0.625,high
1714,113,7,2,8,1,0.0,1108.0,0,prototype,31,2,2,2,2,0.625,high
1715,113,8,2,8,1,1.0,1577.0,1,prototype,32,2,2,2,2,0.625,high
1716,113,9,2,1,0,0.0,2201.0,1,prototype,33,1,1,1,1,0.625,high
1717,113,10,2,1,0,0.0,1142.0,1,prototype,34,1,1,1,1,0.625,high
1718,113,11,2,7,1,0.0,2835.0,0,rule follower,35,2,2,1,2,0.625,high
1719,113,12,2,5,1,0.0,1409.0,0,exception,36,1,2,1,2,0.625,high
1720,113,13,2,2,0,0.0,2430.0,1,rule follower,37,1,1,2,1,0.625,high
1721,113,14,2,2,0,0.0,1173.0,1,rule follower,38,1,1,2,1,0.625,high
1722,113,15,2,1,0,1.0,2037.0,0,prototype,39,1,1,1,1,0.625,high
1723,113,16,2,8,1,0.0,2864.0,0,prototype,40,2,2,2,2,0.625,high
1724,113,17,2,3,0,0.0,1470.0,1,rule follower,41,2,1,1,1,0.625,high
1725,113,18,2,5,1,1.0,1850.0,1,exception,42,1,2,1,2,0.625,high
1726,113,19,2,4,1,0.0,2392.0,0,rule follower,43,2,1,2,2,0.625,high
1727,113,20,2,1,0,0.0,1294.0,1,prototype,44,1,1,1,1,0.625,high
1728,113,21,2,4,1,1.0,1708.0,1,rule follower,45,2,1,2,2,0.625,high
1729,113,22,2,8,1,1.0,1678.0,1,prototype,46,2,2,2,2,0.625,high
1730,113,23,2,7,1,0.0,1623.0,0,rule follower,47,2,2,1,2,0.625,high
1731,113,24,2,8,1,0.0,2807.0,0,prototype,48,2,2,2,2,0.625,high
1828,114,1,1,7,1,,,0,rule follower,1,2,2,1,2,0.75,high
1829,114,2,1,1,0,,,0,prototype,2,1,1,1,1,0.75,high
1830,114,3,1,8,1,,,0,prototype,3,2,2,2,2,0.75,high
1831,114,4,1,8,1,,,0,prototype,4,2,2,2,2,0.75,high
1832,114,5,1,4,1,,,0,rule follower,5,1,2,2,2,0.75,high
1833,114,6,1,1,0,1.0,918.0,0,prototype,6,1,1,1,1,0.75,high
1834,114,7,1,6,0,,,0,exception,7,2,1,2,1,0.75,high
1835,114,8,1,1,0,,,0,prototype,8,1,1,1,1,0.75,high
1836,114,9,1,8,1,,,0,prototype,9,2,2,2,2,0.75,high
1837,114,10,1,1,0,,,0,prototype,10,1,1,1,1,0.75,high
1838,114,11,1,3,0,,,0,rule follower,11,1,2,1,1,0.75,high
1839,114,12,1,6,0,,,0,exception,12,2,1,2,1,0.75,high
1840,114,13,1,1,0,,,0,prototype,13,1,1,1,1,0.75,high
1841,114,14,1,7,1,1.0,1361.0,1,rule follower,14,2,2,1,2,0.75,high
1842,114,15,1,1,0,0.0,1990.0,1,prototype,15,1,1,1,1,0.75,high
1843,114,16,1,8,1,,,0,prototype,16,2,2,2,2,0.75,high
1844,114,17,1,2,0,1.0,1663.0,0,rule follower,17,1,1,2,1,0.75,high
1845,114,18,1,2,0,0.0,556.0,1,rule follower,18,1,1,2,1,0.75,high
1846,114,19,1,8,1,1.0,1077.0,1,prototype,19,2,2,2,2,0.75,high
1847,114,20,1,4,1,0.0,922.0,0,rule follower,20,1,2,2,2,0.75,high
1848,114,21,1,8,1,1.0,545.0,1,prototype,21,2,2,2,2,0.75,high
1849,114,22,1,5,1,1.0,659.0,1,exception,22,2,1,1,2,0.75,high
1850,114,23,1,5,1,1.0,1118.0,1,exception,23,2,1,1,2,0.75,high
1851,114,24,1,3,0,0.0,624.0,1,rule follower,24,1,2,1,1,0.75,high
1852,114,1,2,7,1,1.0,1466.0,1,rule follower,25,2,2,1,2,0.75,high
1853,114,2,2,1,0,0.0,543.0,1,prototype,26,1,1,1,1,0.75,high
1854,114,3,2,2,0,0.0,925.0,1,rule follower,27,1,1,2,1,0.75,high
1855,114,4,2,8,1,1.0,493.0,1,prototype,28,2,2,2,2,0.75,high
1856,114,5,2,8,1,1.0,729.0,1,prototype,29,2,2,2,2,0.75,high
1857,114,6,2,6,0,1.0,864.0,0,exception,30,2,1,2,1,0.75,high
1858,114,7,2,1,0,0.0,1199.0,1,prototype,31,1,1,1,1,0.75,high
1859,114,8,2,7,1,1.0,1229.0,1,rule follower,32,2,2,1,2,0.75,high
1860,114,9,2,3,0,0.0,737.0,1,rule follower,33,1,2,1,1,0.75,high
1861,114,10,2,8,1,1.0,1425.0,1,prototype,34,2,2,2,2,0.75,high
1862,114,11,2,8,1,1.0,835.0,1,prototype,35,2,2,2,2,0.75,high
1863,114,12,2,8,1,1.0,866.0,1,prototype,36,2,2,2,2,0.75,high
1864,114,13,2,1,0,0.0,662.0,1,prototype,37,1,1,1,1,0.75,high
1865,114,14,2,8,1,1.0,1010.0,1,prototype,38,2,2,2,2,0.75,high
1866,114,15,2,5,1,1.0,1082.0,1,exception,39,2,1,1,2,0.75,high
1867,114,16,2,4,1,0.0,660.0,0,rule follower,40,1,2,2,2,0.75,high
1868,114,17,2,6,0,1.0,1001.0,0,exception,41,2,1,2,1,0.75,high
1869,114,18,2,5,1,0.0,925.0,0,exception,42,2,1,1,2,0.75,high
1870,114,19,2,2,0,0.0,1048.0,1,rule follower,43,1,1,2,1,0.75,high
1871,114,20,2,4,1,0.0,1151.0,0,rule follower,44,1,2,2,2,0.75,high
1872,114,21,2,3,0,0.0,1044.0,1,rule follower,45,1,2,1,1,0.75,high
1873,114,22,2,1,0,0.0,1081.0,1,prototype,46,1,1,1,1,0.75,high
1874,114,23,2,1,0,0.0,889.0,1,prototype,47,1,1,1,1,0.75,high
1875,114,24,2,1,0,0.0,926.0,1,prototype,48,1,1,1,1,0.75,high
1972,115,1,1,8,1,,,0,prototype,1,2,2,2,2,0.5,med
1973,115,2,1,2,0,1.0,394.0,0,rule follower,2,1,2,1,1,0.5,med
1974,115,3,1,3,0,0.0,881.0,1,rule follower,3,1,1,2,1,0.5,med
1975,115,4,1,1,0,0.0,992.0,1,prototype,4,1,1,1,1,0.5,med
1976,115,5,1,4,1,0.0,1045.0,0,rule follower,5,1,2,2,2,0.5,med
1977,115,6,1,5,1,1.0,1170.0,1,exception,6,2,1,1,2,0.5,med
1978,115,7,1,1,0,0.0,1776.0,1,prototype,7,1,1,1,1,0.5,med
1979,115,8,1,6,0,1.0,1690.0,0,exception,8,2,2,1,1,0.5,med
1980,115,9,1,8,1,0.0,826.0,0,prototype,9,2,2,2,2,0.5,med
1981,115,10,1,8,1,1.0,1943.0,1,prototype,10,2,2,2,2,0.5,med
1982,115,11,1,8,1,1.0,1831.0,1,prototype,11,2,2,2,2,0.5,med
1983,115,12,1,1,0,1.0,1847.0,0,prototype,12,1,1,1,1,0.5,med
1984,115,13,1,1,0,0.0,1589.0,1,prototype,13,1,1,1,1,0.5,med
1985,115,14,1,7,1,1.0,713.0,1,rule follower,14,2,1,2,2,0.5,med
1986,115,15,1,1,0,0.0,1685.0,1,prototype,15,1,1,1,1,0.5,med
1987,115,16,1,8,1,0.0,1645.0,0,prototype,16,2,2,2,2,0.5,med
1988,115,17,1,3,0,1.0,1253.0,0,rule follower,17,1,1,2,1,0.5,med
1989,115,18,1,1,0,1.0,2717.0,0,prototype,18,1,1,1,1,0.5,med
1990,115,19,1,6,0,1.0,2482.0,0,exception,19,2,2,1,1,0.5,med
1991,115,20,1,4,1,0.0,2596.0,0,rule follower,20,1,2,2,2,0.5,med
1992,115,21,1,7,1,0.0,2018.0,0,rule follower,21,2,1,2,2,0.5,med
1993,115,22,1,5,1,1.0,735.0,1,exception,22,2,1,1,2,0.5,med
1994,115,23,1,2,0,1.0,2709.0,0,rule follower,23,1,2,1,1,0.5,med
1995,115,24,1,8,1,,,0,prototype,24,2,2,2,2,0.5,med
1996,115,1,2,2,0,1.0,2068.0,0,rule follower,25,1,2,1,1,0.5,med
1997,115,2,2,6,0,1.0,1599.0,0,exception,26,2,2,1,1,0.5,med
1998,115,3,2,7,1,1.0,1222.0,1,rule follower,27,2,1,2,2,0.5,med
1999,115,4,2,8,1,1.0,952.0,1,prototype,28,2,2,2,2,0.5,med
2000,115,5,2,3,0,0.0,821.0,1,rule follower,29,1,1,2,1,0.5,med
2001,115,6,2,8,1,1.0,1134.0,1,prototype,30,2,2,2,2,0.5,med
2002,115,7,2,1,0,0.0,1826.0,1,prototype,31,1,1,1,1,0.5,med
2003,115,8,2,6,0,1.0,1004.0,0,exception,32,2,2,1,1,0.5,med
2004,115,9,2,1,0,0.0,1245.0,1,prototype,33,1,1,1,1,0.5,med
2005,115,10,2,2,0,0.0,872.0,1,rule follower,34,1,2,1,1,0.5,med
2006,115,11,2,4,1,0.0,705.0,0,rule follower,35,1,2,2,2,0.5,med
2007,115,12,2,8,1,1.0,1842.0,1,prototype,36,2,2,2,2,0.5,med
2008,115,13,2,7,1,1.0,1537.0,1,rule follower,37,2,1,2,2,0.5,med
2009,115,14,2,5,1,1.0,930.0,1,exception,38,2,1,1,2,0.5,med
2010,115,15,2,4,1,0.0,871.0,0,rule follower,39,1,2,2,2,0.5,med
2011,115,16,2,8,1,0.0,1752.0,0,prototype,40,2,2,2,2,0.5,med
2012,115,17,2,1,0,0.0,2457.0,1,prototype,41,1,1,1,1,0.5,med
2013,115,18,2,1,0,0.0,1347.0,1,prototype,42,1,1,1,1,0.5,med
2014,115,19,2,5,1,1.0,1033.0,1,exception,43,2,1,1,2,0.5,med
2015,115,20,2,3,0,0.0,1187.0,1,rule follower,44,1,1,2,1,0.5,med
2016,115,21,2,1,0,0.0,1295.0,1,prototype,45,1,1,1,1,0.5,med
2017,115,22,2,8,1,1.0,739.0,1,prototype,46,2,2,2,2,0.5,med
2018,115,23,2,1,0,0.0,977.0,1,prototype,47,1,1,1,1,0.5,med
2019,115,24,2,8,1,1.0,1693.0,1,prototype,48,2,2,2,2,0.5,med
2116,116,1,1,8,1,1.0,779.0,1,prototype,1,2,2,2,2,0.625,high
2117,116,2,1,8,1,1.0,902.0,1,prototype,2,2,2,2,2,0.625,high
2118,116,3,1,1,0,1.0,1138.0,0,prototype,3,1,1,1,1,0.625,high
2119,116,4,1,8,1,1.0,1120.0,1,prototype,4,2,2,2,2,0.625,high
2120,116,5,1,3,0,1.0,1486.0,0,rule follower,5,2,1,1,1,0.625,high
2121,116,6,1,6,0,0.0,1010.0,1,exception,6,1,2,2,1,0.625,high
2122,116,7,1,8,1,0.0,1426.0,0,prototype,7,2,2,2,2,0.625,high
2123,116,8,1,7,1,0.0,2156.0,0,rule follower,8,2,2,1,2,0.625,high
2124,116,9,1,4,1,1.0,1525.0,1,rule follower,9,2,1,2,2,0.625,high
2125,116,10,1,8,1,0.0,2033.0,0,prototype,10,2,2,2,2,0.625,high
2126,116,11,1,2,0,0.0,917.0,1,rule follower,11,1,1,2,1,0.625,high
2127,116,12,1,8,1,1.0,1786.0,1,prototype,12,2,2,2,2,0.625,high
2128,116,13,1,1,0,0.0,1054.0,1,prototype,13,1,1,1,1,0.625,high
2129,116,14,1,2,0,0.0,1081.0,1,rule follower,14,1,1,2,1,0.625,high
2130,116,15,1,6,0,0.0,1375.0,1,exception,15,1,2,2,1,0.625,high
2131,116,16,1,1,0,0.0,787.0,1,prototype,16,1,1,1,1,0.625,high
2132,116,17,1,1,0,0.0,812.0,1,prototype,17,1,1,1,1,0.625,high
2133,116,18,1,5,1,0.0,1209.0,0,exception,18,1,2,1,2,0.625,high
2134,116,19,1,7,1,1.0,1640.0,1,rule follower,19,2,2,1,2,0.625,high
2135,116,20,1,1,0,0.0,1987.0,1,prototype,20,1,1,1,1,0.625,high
2136,116,21,1,3,0,0.0,1636.0,1,rule follower,21,2,1,1,1,0.625,high
2137,116,22,1,4,1,1.0,1231.0,1,rule follower,22,2,1,2,2,0.625,high
2138,116,23,1,5,1,0.0,1025.0,0,exception,23,1,2,1,2,0.625,high
2139,116,24,1,1,0,0.0,1785.0,1,prototype,24,1,1,1,1,0.625,high
2140,116,1,2,3,0,1.0,1985.0,0,rule follower,25,2,1,1,1,0.625,high
2141,116,2,2,8,1,1.0,1671.0,1,prototype,26,2,2,2,2,0.625,high
2142,116,3,2,4,1,0.0,2460.0,0,rule follower,27,2,1,2,2,0.625,high
2143,116,4,2,1,0,0.0,1690.0,1,prototype,28,1,1,1,1,0.625,high
2144,116,5,2,1,0,0.0,1857.0,1,prototype,29,1,1,1,1,0.625,high
2145,116,6,2,8,1,1.0,1395.0,1,prototype,30,2,2,2,2,0.625,high
2146,116,7,2,7,1,0.0,1580.0,0,rule follower,31,2,2,1,2,0.625,high
2147,116,8,2,3,0,1.0,1668.0,0,rule follower,32,2,1,1,1,0.625,high
2148,116,9,2,6,0,0.0,1863.0,1,exception,33,1,2,2,1,0.625,high
2149,116,10,2,1,0,0.0,2142.0,1,prototype,34,1,1,1,1,0.625,high
2150,116,11,2,4,1,1.0,2089.0,1,rule follower,35,2,1,2,2,0.625,high
2151,116,12,2,8,1,0.0,1758.0,0,prototype,36,2,2,2,2,0.625,high
2152,116,13,2,1,0,1.0,2254.0,0,prototype,37,1,1,1,1,0.625,high
2153,116,14,2,6,0,0.0,1473.0,1,exception,38,1,2,2,1,0.625,high
2154,116,15,2,2,0,1.0,2508.0,0,rule follower,39,1,1,2,1,0.625,high
2155,116,16,2,8,1,1.0,1473.0,1,prototype,40,2,2,2,2,0.625,high
2156,116,17,2,5,1,0.0,1007.0,0,exception,41,1,2,1,2,0.625,high
2157,116,18,2,1,0,1.0,1653.0,0,prototype,42,1,1,1,1,0.625,high
2158,116,19,2,2,0,0.0,1601.0,1,rule follower,43,1,1,2,1,0.625,high
2159,116,20,2,7,1,1.0,1445.0,1,rule follower,44,2,2,1,2,0.625,high
2160,116,21,2,8,1,1.0,1664.0,1,prototype,45,2,2,2,2,0.625,high
2161,116,22,2,1,0,1.0,2103.0,0,prototype,46,1,1,1,1,0.625,high
2162,116,23,2,8,1,1.0,2052.0,1,prototype,47,2,2,2,2,0.625,high
2163,116,24,2,5,1,0.0,1959.0,0,exception,48,1,2,1,2,0.625,high
2260,117,1,1,3,0,,,0,rule follower,1,1,2,1,1,0.0,low
2261,117,2,1,7,1,,,0,rule follower,2,1,2,2,2,0.0,low
2262,117,3,1,2,0,,,0,rule follower,3,2,1,1,1,0.0,low
2263,117,4,1,8,1,,,0,prototype,4,2,2,2,2,0.0,low
2264,117,5,1,5,1,,,0,exception,5,1,1,2,2,0.0,low
2265,117,6,1,8,1,,,0,prototype,6,2,2,2,2,0.0,low
2266,117,7,1,1,0,,,0,prototype,7,1,1,1,1,0.0,low
2267,117,8,1,3,0,,,0,rule follower,8,1,2,1,1,0.0,low
2268,117,9,1,8,1,,,0,prototype,9,2,2,2,2,0.0,low
2269,117,10,1,5,1,,,0,exception,10,1,1,2,2,0.0,low
2270,117,11,1,4,1,,,0,rule follower,11,2,2,1,2,0.0,low
2271,117,12,1,6,0,,,0,exception,12,2,1,2,1,0.0,low
2272,117,13,1,8,1,,,0,prototype,13,2,2,2,2,0.0,low
2273,117,14,1,2,0,,,0,rule follower,14,2,1,1,1,0.0,low
2274,117,15,1,4,1,,,0,rule follower,15,2,2,1,2,0.0,low
2275,117,16,1,8,1,,,0,prototype,16,2,2,2,2,0.0,low
2276,117,17,1,1,0,,,0,prototype,17,1,1,1,1,0.0,low
2277,117,18,1,8,1,,,0,prototype,18,2,2,2,2,0.0,low
2278,117,19,1,1,0,,,0,prototype,19,1,1,1,1,0.0,low
2279,117,20,1,6,0,,,0,exception,20,2,1,2,1,0.0,low
2280,117,21,1,1,0,,,0,prototype,21,1,1,1,1,0.0,low
2281,117,22,1,1,0,,,0,prototype,22,1,1,1,1,0.0,low
2282,117,23,1,1,0,,,0,prototype,23,1,1,1,1,0.0,low
2283,117,24,1,7,1,,,0,rule follower,24,1,2,2,2,0.0,low
2284,117,1,2,4,1,,,0,rule follower,25,2,2,1,2,0.0,low
2285,117,2,2,8,1,,,0,prototype,26,2,2,2,2,0.0,low
2286,117,3,2,6,0,,,0,exception,27,2,1,2,1,0.0,low
2287,117,4,2,4,1,,,0,rule follower,28,2,2,1,2,0.0,low
2288,117,5,2,8,1,,,0,prototype,29,2,2,2,2,0.0,low
2289,117,6,2,7,1,,,0,rule follower,30,1,2,2,2,0.0,low
2290,117,7,2,1,0,,,0,prototype,31,1,1,1,1,0.0,low
2291,117,8,2,1,0,,,0,prototype,32,1,1,1,1,0.0,low
2292,117,9,2,7,1,,,0,rule follower,33,1,2,2,2,0.0,low
2293,117,10,2,6,0,,,0,exception,34,2,1,2,1,0.0,low
2294,117,11,2,8,1,,,0,prototype,35,2,2,2,2,0.0,low
2295,117,12,2,1,0,,,0,prototype,36,1,1,1,1,0.0,low
2296,117,13,2,1,0,,,0,prototype,37,1,1,1,1,0.0,low
2297,117,14,2,5,1,,,0,exception,38,1,1,2,2,0.0,low
2298,117,15,2,1,0,,,0,prototype,39,1,1,1,1,0.0,low
2299,117,16,2,8,1,,,0,prototype,40,2,2,2,2,0.0,low
2300,117,17,2,2,0,,,0,rule follower,41,2,1,1,1,0.0,low
2301,117,18,2,8,1,,,0,prototype,42,2,2,2,2,0.0,low
2302,117,19,2,1,0,,,0,prototype,43,1,1,1,1,0.0,low
2303,117,20,2,8,1,,,0,prototype,44,2,2,2,2,0.0,low
2304,117,21,2,2,0,,,0,rule follower,45,2,1,1,1,0.0,low
2305,117,22,2,3,0,,,0,rule follower,46,1,2,1,1,0.0,low
2306,117,23,2,5,1,,,0,exception,47,1,1,2,2,0.0,low
2307,117,24,2,3,0,,,0,rule follower,48,1,2,1,1,0.0,low
2404,119,1,1,8,1,,,0,prototype,1,2,2,2,2,0.125,low
2405,119,2,1,2,0,,,0,rule follower,2,2,1,1,1,0.125,low
2406,119,3,1,1,0,,,0,prototype,3,1,1,1,1,0.125,low
2407,119,4,1,1,0,,,0,prototype,4,1,1,1,1,0.125,low
2408,119,5,1,8,1,,,0,prototype,5,2,2,2,2,0.125,low
2409,119,6,1,6,0,,,0,exception,6,2,1,2,1,0.125,low
2410,119,7,1,8,1,,,0,prototype,7,2,2,2,2,0.125,low
2411,119,8,1,3,0,,,0,rule follower,8,1,2,1,1,0.125,low
2412,119,9,1,1,0,,,0,prototype,9,1,1,1,1,0.125,low
2413,119,10,1,1,0,,,0,prototype,10,1,1,1,1,0.125,low
2414,119,11,1,1,0,,,0,prototype,11,1,1,1,1,0.125,low
2415,119,12,1,4,1,,,0,rule follower,12,2,2,1,2,0.125,low
2416,119,13,1,5,1,,,0,exception,13,1,1,2,2,0.125,low
2417,119,14,1,7,1,,,0,rule follower,14,1,2,2,2,0.125,low
2418,119,15,1,7,1,0.0,1406.0,0,rule follower,15,1,2,2,2,0.125,low
2419,119,16,1,2,0,1.0,917.0,0,rule follower,16,2,1,1,1,0.125,low
2420,119,17,1,8,1,1.0,1358.0,1,prototype,17,2,2,2,2,0.125,low
2421,119,18,1,6,0,,,0,exception,18,2,1,2,1,0.125,low
2422,119,19,1,1,0,,,0,prototype,19,1,1,1,1,0.125,low
2423,119,20,1,3,0,,,0,rule follower,20,1,2,1,1,0.125,low
2424,119,21,1,8,1,1.0,1166.0,1,prototype,21,2,2,2,2,0.125,low
2425,119,22,1,5,1,0.0,1625.0,0,exception,22,1,1,2,2,0.125,low
2426,119,23,1,4,1,1.0,1166.0,1,rule follower,23,2,2,1,2,0.125,low
2427,119,24,1,8,1,1.0,1229.0,1,prototype,24,2,2,2,2,0.125,low
2428,119,1,2,8,1,1.0,1012.0,1,prototype,25,2,2,2,2,0.125,low
2429,119,2,2,8,1,0.0,2298.0,0,prototype,26,2,2,2,2,0.125,low
2430,119,3,2,4,1,1.0,1870.0,1,rule follower,27,2,2,1,2,0.125,low
2431,119,4,2,6,0,1.0,1117.0,0,exception,28,2,1,2,1,0.125,low
2432,119,5,2,8,1,0.0,2017.0,0,prototype,29,2,2,2,2,0.125,low
2433,119,6,2,5,1,0.0,1107.0,0,exception,30,1,1,2,2,0.125,low
2434,119,7,2,2,0,1.0,1280.0,0,rule follower,31,2,1,1,1,0.125,low
2435,119,8,2,8,1,0.0,2538.0,0,prototype,32,2,2,2,2,0.125,low
2436,119,9,2,5,1,1.0,2245.0,1,exception,33,1,1,2,2,0.125,low
2437,119,10,2,8,1,1.0,1338.0,1,prototype,34,2,2,2,2,0.125,low
2438,119,11,2,3,0,1.0,1064.0,0,rule follower,35,1,2,1,1,0.125,low
2439,119,12,2,4,1,1.0,1170.0,1,rule follower,36,2,2,1,2,0.125,low
2440,119,13,2,8,1,,,0,prototype,37,2,2,2,2,0.125,low
2441,119,14,2,7,1,1.0,1385.0,1,rule follower,38,1,2,2,2,0.125,low
2442,119,15,2,7,1,1.0,1549.0,1,rule follower,39,1,2,2,2,0.125,low
2443,119,16,2,1,0,0.0,1663.0,1,prototype,40,1,1,1,1,0.125,low
2444,119,17,2,2,0,1.0,1292.0,0,rule follower,41,2,1,1,1,0.125,low
2445,119,18,2,1,0,1.0,1053.0,0,prototype,42,1,1,1,1,0.125,low
2446,119,19,2,1,0,1.0,1220.0,0,prototype,43,1,1,1,1,0.125,low
2447,119,20,2,1,0,1.0,952.0,0,prototype,44,1,1,1,1,0.125,low
2448,119,21,2,1,0,0.0,2235.0,1,prototype,45,1,1,1,1,0.125,low
2449,119,22,2,6,0,1.0,2139.0,0,exception,46,2,1,2,1,0.125,low
2450,119,23,2,3,0,1.0,1393.0,0,rule follower,47,1,2,1,1,0.125,low
2451,119,24,2,1,0,0.0,2056.0,1,prototype,48,1,1,1,1,0.125,low
2548,120,1,1,1,0,1.0,2167.0,0,prototype,1,1,1,1,1,0.5,med
2549,120,2,1,6,0,,,0,exception,2,2,2,1,1,0.5,med
2550,120,3,1,7,1,0.0,2466.0,0,rule follower,3,1,2,2,2,0.5,med
2551,120,4,1,1,0,1.0,2550.0,0,prototype,4,1,1,1,1,0.5,med
2552,120,5,1,2,0,0.0,1431.0,1,rule follower,5,2,1,1,1,0.5,med
2553,120,6,1,6,0,1.0,1340.0,0,exception,6,2,2,1,1,0.5,med
2554,120,7,1,8,1,0.0,1584.0,0,prototype,7,2,2,2,2,0.5,med
2555,120,8,1,8,1,1.0,1356.0,1,prototype,8,2,2,2,2,0.5,med
2556,120,9,1,8,1,1.0,1514.0,1,prototype,9,2,2,2,2,0.5,med
2557,120,10,1,1,0,0.0,1188.0,1,prototype,10,1,1,1,1,0.5,med
2558,120,11,1,3,0,0.0,1117.0,1,rule follower,11,1,1,2,1,0.5,med
2559,120,12,1,5,1,0.0,1190.0,0,exception,12,1,2,1,2,0.5,med
2560,120,13,1,4,1,1.0,2134.0,1,rule follower,13,2,1,2,2,0.5,med
2561,120,14,1,5,1,0.0,1387.0,0,exception,14,1,2,1,2,0.5,med
2562,120,15,1,8,1,1.0,1513.0,1,prototype,15,2,2,2,2,0.5,med
2563,120,16,1,3,0,1.0,1327.0,0,rule follower,16,1,1,2,1,0.5,med
2564,120,17,1,7,1,0.0,1469.0,0,rule follower,17,1,2,2,2,0.5,med
2565,120,18,1,8,1,1.0,1306.0,1,prototype,18,2,2,2,2,0.5,med
2566,120,19,1,1,0,0.0,1501.0,1,prototype,19,1,1,1,1,0.5,med
2567,120,20,1,1,0,1.0,1421.0,0,prototype,20,1,1,1,1,0.5,med
2568,120,21,1,1,0,0.0,901.0,1,prototype,21,1,1,1,1,0.5,med
2569,120,22,1,2,0,1.0,635.0,0,rule follower,22,2,1,1,1,0.5,med
2570,120,23,1,8,1,0.0,840.0,0,prototype,23,2,2,2,2,0.5,med
2571,120,24,1,4,1,1.0,1031.0,1,rule follower,24,2,1,2,2,0.5,med
2572,120,1,2,1,0,1.0,1045.0,0,prototype,25,1,1,1,1,0.5,med
2573,120,2,2,5,1,1.0,669.0,1,exception,26,1,2,1,2,0.5,med
2574,120,3,2,5,1,1.0,604.0,1,exception,27,1,2,1,2,0.5,med
2575,120,4,2,6,0,1.0,572.0,0,exception,28,2,2,1,1,0.5,med
2576,120,5,2,8,1,1.0,698.0,1,prototype,29,2,2,2,2,0.5,med
2577,120,6,2,1,0,0.0,667.0,1,prototype,30,1,1,1,1,0.5,med
2578,120,7,2,1,0,0.0,1085.0,1,prototype,31,1,1,1,1,0.5,med
2579,120,8,2,2,0,1.0,616.0,0,rule follower,32,2,1,1,1,0.5,med
2580,120,9,2,3,0,0.0,892.0,1,rule follower,33,1,1,2,1,0.5,med
2581,120,10,2,4,1,0.0,613.0,0,rule follower,34,2,1,2,2,0.5,med
2582,120,11,2,8,1,1.0,443.0,1,prototype,35,2,2,2,2,0.5,med
2583,120,12,2,7,1,1.0,452.0,1,rule follower,36,1,2,2,2,0.5,med
2584,120,13,2,3,0,0.0,556.0,1,rule follower,37,1,1,2,1,0.5,med
2585,120,14,2,1,0,0.0,658.0,1,prototype,38,1,1,1,1,0.5,med
2586,120,15,2,6,0,1.0,406.0,0,exception,39,2,2,1,1,0.5,med
2587,120,16,2,8,1,1.0,687.0,1,prototype,40,2,2,2,2,0.5,med
2588,120,17,2,1,0,0.0,745.0,1,prototype,41,1,1,1,1,0.5,med
2589,120,18,2,8,1,1.0,763.0,1,prototype,42,2,2,2,2,0.5,med
2590,120,19,2,8,1,1.0,508.0,1,prototype,43,2,2,2,2,0.5,med
2591,120,20,2,1,0,0.0,604.0,1,prototype,44,1,1,1,1,0.5,med
2592,120,21,2,7,1,1.0,528.0,1,rule follower,45,1,2,2,2,0.5,med
2593,120,22,2,2,0,0.0,604.0,1,rule follower,46,2,1,1,1,0.5,med
2594,120,23,2,4,1,0.0,688.0,0,rule follower,47,2,1,2,2,0.5,med
2595,120,24,2,8,1,1.0,544.0,1,prototype,48,2,2,2,2,0.5,med
2692,121,1,1,8,1,1.0,912.0,1,prototype,1,2,2,2,2,0.5,med
2693,121,2,1,3,0,0.0,724.0,1,rule follower,2,1,2,1,1,0.5,med
2694,121,3,1,1,0,,,0,prototype,3,1,1,1,1,0.5,med
2695,121,4,1,2,0,,,0,rule follower,4,1,1,2,1,0.5,med
2696,121,5,1,7,1,0.0,1083.0,0,rule follower,5,2,2,1,2,0.5,med
2697,121,6,1,8,1,0.0,905.0,0,prototype,6,2,2,2,2,0.5,med
2698,121,7,1,3,0,0.0,1742.0,1,rule follower,7,1,2,1,1,0.5,med
2699,121,8,1,8,1,1.0,1054.0,1,prototype,8,2,2,2,2,0.5,med
2700,121,9,1,5,1,1.0,940.0,1,exception,9,2,1,1,2,0.5,med
2701,121,10,1,1,0,0.0,789.0,1,prototype,10,1,1,1,1,0.5,med
2702,121,11,1,1,0,0.0,789.0,1,prototype,11,1,1,1,1,0.5,med
2703,121,12,1,8,1,1.0,622.0,1,prototype,12,2,2,2,2,0.5,med
2704,121,13,1,6,0,1.0,892.0,0,exception,13,2,1,2,1,0.5,med
2705,121,14,1,4,1,0.0,1188.0,0,rule follower,14,1,2,2,2,0.5,med
2706,121,15,1,2,0,1.0,1078.0,0,rule follower,15,1,1,2,1,0.5,med
2707,121,16,1,1,0,0.0,740.0,1,prototype,16,1,1,1,1,0.5,med
2708,121,17,1,6,0,,,0,exception,17,2,1,2,1,0.5,med
2709,121,18,1,5,1,1.0,1039.0,1,exception,18,2,1,1,2,0.5,med
2710,121,19,1,8,1,1.0,1261.0,1,prototype,19,2,2,2,2,0.5,med
2711,121,20,1,1,0,0.0,1164.0,1,prototype,20,1,1,1,1,0.5,med
2712,121,21,1,4,1,0.0,1343.0,0,rule follower,21,1,2,2,2,0.5,med
2713,121,22,1,7,1,1.0,1423.0,1,rule follower,22,2,2,1,2,0.5,med
2714,121,23,1,8,1,0.0,1398.0,0,prototype,23,2,2,2,2,0.5,med
2715,121,24,1,1,0,0.0,1231.0,1,prototype,24,1,1,1,1,0.5,med
2716,121,1,2,1,0,0.0,1209.0,1,prototype,25,1,1,1,1,0.5,med
2717,121,2,2,8,1,1.0,935.0,1,prototype,26,2,2,2,2,0.5,med
2718,121,3,2,8,1,1.0,1187.0,1,prototype,27,2,2,2,2,0.5,med
2719,121,4,2,4,1,0.0,933.0,0,rule follower,28,1,2,2,2,0.5,med
2720,121,5,2,1,0,1.0,1500.0,0,prototype,29,1,1,1,1,0.5,med
2721,121,6,2,6,0,1.0,1241.0,0,exception,30,2,1,2,1,0.5,med
2722,121,7,2,8,1,1.0,1276.0,1,prototype,31,2,2,2,2,0.5,med
2723,121,8,2,6,0,1.0,1622.0,0,exception,32,2,1,2,1,0.5,med
2724,121,9,2,3,0,0.0,913.0,1,rule follower,33,1,2,1,1,0.5,med
2725,121,10,2,7,1,1.0,1191.0,1,rule follower,34,2,2,1,2,0.5,med
2726,121,11,2,4,1,0.0,1363.0,0,rule follower,35,1,2,2,2,0.5,med
2727,121,12,2,1,0,0.0,1560.0,1,prototype,36,1,1,1,1,0.5,med
2728,121,13,2,1,0,1.0,1574.0,0,prototype,37,1,1,1,1,0.5,med
2729,121,14,2,5,1,1.0,1616.0,1,exception,38,2,1,1,2,0.5,med
2730,121,15,2,3,0,0.0,1697.0,1,rule follower,39,1,2,1,1,0.5,med
2731,121,16,2,2,0,0.0,1500.0,1,rule follower,40,1,1,2,1,0.5,med
2732,121,17,2,1,0,0.0,1472.0,1,prototype,41,1,1,1,1,0.5,med
2733,121,18,2,8,1,1.0,1424.0,1,prototype,42,2,2,2,2,0.5,med
2734,121,19,2,8,1,1.0,1311.0,1,prototype,43,2,2,2,2,0.5,med
2735,121,20,2,2,0,0.0,1294.0,1,rule follower,44,1,1,2,1,0.5,med
2736,121,21,2,1,0,0.0,1239.0,1,prototype,45,1,1,1,1,0.5,med
2737,121,22,2,7,1,1.0,1363.0,1,rule follower,46,2,2,1,2,0.5,med
2738,121,23,2,5,1,1.0,803.0,1,exception,47,2,1,1,2,0.5,med
2739,121,24,2,8,1,1.0,1297.0,1,prototype,48,2,2,2,2,0.5,med
2836,122,1,1,8,1,1.0,1559.0,1,prototype,1,2,2,2,2,0.5,med
2837,122,2,1,8,1,1.0,994.0,1,prototype,2,2,2,2,2,0.5,med
2838,122,3,1,6,0,1.0,1480.0,0,exception,3,2,2,1,1,0.5,med
2839,122,4,1,8,1,1.0,2203.0,1,prototype,4,2,2,2,2,0.5,med
2840,122,5,1,4,1,0.0,1215.0,0,rule follower,5,1,2,2,2,0.5,med
2841,122,6,1,1,0,1.0,2044.0,0,prototype,6,1,1,1,1,0.5,med
2842,122,7,1,7,1,,,0,rule follower,7,2,1,2,2,0.5,med
2843,122,8,1,2,0,0.0,1743.0,1,rule follower,8,1,2,1,1,0.5,med
2844,122,9,1,5,1,0.0,2600.0,0,exception,9,2,1,1,2,0.5,med
2845,122,10,1,1,0,0.0,2213.0,1,prototype,10,1,1,1,1,0.5,med
2846,122,11,1,8,1,,,0,prototype,11,2,2,2,2,0.5,med
2847,122,12,1,2,0,1.0,1189.0,0,rule follower,12,1,2,1,1,0.5,med
2848,122,13,1,1,0,0.0,927.0,1,prototype,13,1,1,1,1,0.5,med
2849,122,14,1,8,1,1.0,1543.0,1,prototype,14,2,2,2,2,0.5,med
2850,122,15,1,1,0,0.0,1550.0,1,prototype,15,1,1,1,1,0.5,med
2851,122,16,1,3,0,1.0,1522.0,0,rule follower,16,1,1,2,1,0.5,med
2852,122,17,1,5,1,1.0,672.0,1,exception,17,2,1,1,2,0.5,med
2853,122,18,1,8,1,1.0,1230.0,1,prototype,18,2,2,2,2,0.5,med
2854,122,19,1,1,0,0.0,1759.0,1,prototype,19,1,1,1,1,0.5,med
2855,122,20,1,3,0,0.0,1205.0,1,rule follower,20,1,1,2,1,0.5,med
2856,122,21,1,1,0,0.0,1159.0,1,prototype,21,1,1,1,1,0.5,med
2857,122,22,1,7,1,1.0,648.0,1,rule follower,22,2,1,2,2,0.5,med
2858,122,23,1,6,0,1.0,595.0,0,exception,23,2,2,1,1,0.5,med
2859,122,24,1,4,1,0.0,905.0,0,rule follower,24,1,2,2,2,0.5,med
2860,122,1,2,1,0,0.0,919.0,1,prototype,25,1,1,1,1,0.5,med
2861,122,2,2,8,1,1.0,637.0,1,prototype,26,2,2,2,2,0.5,med
2862,122,3,2,1,0,0.0,590.0,1,prototype,27,1,1,1,1,0.5,med
2863,122,4,2,2,0,0.0,655.0,1,rule follower,28,1,2,1,1,0.5,med
2864,122,5,2,8,1,1.0,585.0,1,prototype,29,2,2,2,2,0.5,med
2865,122,6,2,8,1,1.0,667.0,1,prototype,30,2,2,2,2,0.5,med
2866,122,7,2,5,1,1.0,713.0,1,exception,31,2,1,1,2,0.5,med
2867,122,8,2,8,1,1.0,564.0,1,prototype,32,2,2,2,2,0.5,med
2868,122,9,2,1,0,0.0,547.0,1,prototype,33,1,1,1,1,0.5,med
2869,122,10,2,7,1,1.0,956.0,1,rule follower,34,2,1,2,2,0.5,med
2870,122,11,2,4,1,0.0,1064.0,0,rule follower,35,1,2,2,2,0.5,med
2871,122,12,2,7,1,1.0,1572.0,1,rule follower,36,2,1,2,2,0.5,med
2872,122,13,2,6,0,1.0,1712.0,0,exception,37,2,2,1,1,0.5,med
2873,122,14,2,1,0,0.0,1089.0,1,prototype,38,1,1,1,1,0.5,med
2874,122,15,2,3,0,0.0,1901.0,1,rule follower,39,1,1,2,1,0.5,med
2875,122,16,2,5,1,1.0,1370.0,1,exception,40,2,1,1,2,0.5,med
2876,122,17,2,1,0,0.0,731.0,1,prototype,41,1,1,1,1,0.5,med
2877,122,18,2,1,0,0.0,858.0,1,prototype,42,1,1,1,1,0.5,med
2878,122,19,2,8,1,1.0,712.0,1,prototype,43,2,2,2,2,0.5,med
2879,122,20,2,6,0,0.0,650.0,1,exception,44,2,2,1,1,0.5,med
2880,122,21,2,2,0,0.0,770.0,1,rule follower,45,1,2,1,1,0.5,med
2881,122,22,2,8,1,1.0,1147.0,1,prototype,46,2,2,2,2,0.5,med
2882,122,23,2,4,1,0.0,1242.0,0,rule follower,47,1,2,2,2,0.5,med
2883,122,24,2,3,0,0.0,880.0,1,rule follower,48,1,1,2,1,0.5,med
2980,123,1,1,1,0,1.0,2776.0,0,prototype,1,1,1,1,1,0.375,low
2981,123,2,1,4,1,0.0,1363.0,0,rule follower,2,2,2,1,2,0.375,low
2982,123,3,1,3,0,0.0,1389.0,1,rule follower,3,1,2,1,1,0.375,low
2983,123,4,1,6,0,0.0,2333.0,1,exception,4,2,1,2,1,0.375,low
2984,123,5,1,8,1,0.0,895.0,0,prototype,5,2,2,2,2,0.375,low
2985,123,6,1,7,1,,,0,rule follower,6,1,2,2,2,0.375,low
2986,123,7,1,1,0,1.0,1219.0,0,prototype,7,1,1,1,1,0.375,low
2987,123,8,1,8,1,1.0,1766.0,1,prototype,8,2,2,2,2,0.375,low
2988,123,9,1,1,0,0.0,1806.0,1,prototype,9,1,1,1,1,0.375,low
2989,123,10,1,8,1,1.0,1682.0,1,prototype,10,2,2,2,2,0.375,low
2990,123,11,1,8,1,1.0,921.0,1,prototype,11,2,2,2,2,0.375,low
2991,123,12,1,5,1,0.0,2103.0,0,exception,12,1,1,2,2,0.375,low
2992,123,13,1,6,0,1.0,2217.0,0,exception,13,2,1,2,1,0.375,low
2993,123,14,1,1,0,1.0,1839.0,0,prototype,14,1,1,1,1,0.375,low
2994,123,15,1,4,1,0.0,1607.0,0,rule follower,15,2,2,1,2,0.375,low
2995,123,16,1,7,1,1.0,1717.0,1,rule follower,16,1,2,2,2,0.375,low
2996,123,17,1,1,0,1.0,2564.0,0,prototype,17,1,1,1,1,0.375,low
2997,123,18,1,8,1,0.0,1229.0,0,prototype,18,2,2,2,2,0.375,low
2998,123,19,1,5,1,1.0,2945.0,1,exception,19,1,1,2,2,0.375,low
2999,123,20,1,3,0,0.0,1298.0,1,rule follower,20,1,2,1,1,0.375,low
3000,123,21,1,1,0,0.0,1428.0,1,prototype,21,1,1,1,1,0.375,low
3001,123,22,1,2,0,1.0,952.0,0,rule follower,22,2,1,1,1,0.375,low
3002,123,23,1,2,0,0.0,771.0,1,rule follower,23,2,1,1,1,0.375,low
3003,123,24,1,8,1,0.0,777.0,0,prototype,24,2,2,2,2,0.375,low
3004,123,1,2,7,1,0.0,2533.0,0,rule follower,25,1,2,2,2,0.375,low
3005,123,2,2,8,1,1.0,2098.0,1,prototype,26,2,2,2,2,0.375,low
3006,123,3,2,1,0,0.0,555.0,1,prototype,27,1,1,1,1,0.375,low
3007,123,4,2,7,1,1.0,1474.0,1,rule follower,28,1,2,2,2,0.375,low
3008,123,5,2,8,1,0.0,1193.0,0,prototype,29,2,2,2,2,0.375,low
3009,123,6,2,8,1,1.0,1532.0,1,prototype,30,2,2,2,2,0.375,low
3010,123,7,2,1,0,1.0,2057.0,0,prototype,31,1,1,1,1,0.375,low
3011,123,8,2,5,1,1.0,2910.0,1,exception,32,1,1,2,2,0.375,low
3012,123,9,2,3,0,0.0,1330.0,1,rule follower,33,1,2,1,1,0.375,low
3013,123,10,2,2,0,0.0,1098.0,1,rule follower,34,2,1,1,1,0.375,low
3014,123,11,2,8,1,1.0,825.0,1,prototype,35,2,2,2,2,0.375,low
3015,123,12,2,1,0,0.0,703.0,1,prototype,36,1,1,1,1,0.375,low
3016,123,13,2,1,0,0.0,562.0,1,prototype,37,1,1,1,1,0.375,low
3017,123,14,2,1,0,0.0,631.0,1,prototype,38,1,1,1,1,0.375,low
3018,123,15,2,8,1,1.0,521.0,1,prototype,39,2,2,2,2,0.375,low
3019,123,16,2,5,1,1.0,698.0,1,exception,40,1,1,2,2,0.375,low
3020,123,17,2,2,0,0.0,510.0,1,rule follower,41,2,1,1,1,0.375,low
3021,123,18,2,1,0,0.0,568.0,1,prototype,42,1,1,1,1,0.375,low
3022,123,19,2,4,1,0.0,841.0,0,rule follower,43,2,2,1,2,0.375,low
3023,123,20,2,6,0,1.0,1235.0,0,exception,44,2,1,2,1,0.375,low
3024,123,21,2,3,0,1.0,874.0,0,rule follower,45,1,2,1,1,0.375,low
3025,123,22,2,4,1,0.0,1303.0,0,rule follower,46,2,2,1,2,0.375,low
3026,123,23,2,6,0,1.0,1786.0,0,exception,47,2,1,2,1,0.375,low
3027,123,24,2,8,1,0.0,1002.0,0,prototype,48,2,2,2,2,0.375,low
3124,124,1,1,3,0,1.0,1087.0,0,rule follower,1,1,1,2,1,1.0,high
3125,124,2,1,1,0,1.0,1858.0,0,prototype,2,1,1,1,1,1.0,high
3126,124,3,1,2,0,0.0,1820.0,1,rule follower,3,1,2,1,1,1.0,high
3127,124,4,1,5,1,,,0,exception,4,2,1,1,2,1.0,high
3128,124,5,1,2,0,1.0,1952.0,0,rule follower,5,1,2,1,1,1.0,high
3129,124,6,1,1,0,1.0,1941.0,0,prototype,6,1,1,1,1,1.0,high
3130,124,7,1,8,1,,,0,prototype,7,2,2,2,2,1.0,high
3131,124,8,1,8,1,0.0,2095.0,0,prototype,8,2,2,2,2,1.0,high
3132,124,9,1,8,1,0.0,1990.0,0,prototype,9,2,2,2,2,1.0,high
3133,124,10,1,1,0,1.0,2789.0,0,prototype,10,1,1,1,1,1.0,high
3134,124,11,1,4,1,1.0,2324.0,1,rule follower,11,1,2,2,2,1.0,high
3135,124,12,1,1,0,0.0,1619.0,1,prototype,12,1,1,1,1,1.0,high
3136,124,13,1,8,1,0.0,2554.0,0,prototype,13,2,2,2,2,1.0,high
3137,124,14,1,7,1,0.0,2048.0,0,rule follower,14,2,1,2,2,1.0,high
3138,124,15,1,3,0,0.0,2206.0,1,rule follower,15,1,1,2,1,1.0,high
3139,124,16,1,6,0,0.0,1951.0,1,exception,16,2,2,1,1,1.0,high
3140,124,17,1,8,1,1.0,1166.0,1,prototype,17,2,2,2,2,1.0,high
3141,124,18,1,5,1,1.0,1597.0,1,exception,18,2,1,1,2,1.0,high
3142,124,19,1,7,1,0.0,2013.0,0,rule follower,19,2,1,2,2,1.0,high
3143,124,20,1,8,1,1.0,1636.0,1,prototype,20,2,2,2,2,1.0,high
3144,124,21,1,4,1,0.0,752.0,0,rule follower,21,1,2,2,2,1.0,high
3145,124,22,1,1,0,0.0,1033.0,1,prototype,22,1,1,1,1,1.0,high
3146,124,23,1,6,0,1.0,1254.0,0,exception,23,2,2,1,1,1.0,high
3147,124,24,1,1,0,1.0,1867.0,0,prototype,24,1,1,1,1,1.0,high
3148,124,1,2,6,0,1.0,795.0,0,exception,25,2,2,1,1,1.0,high
3149,124,2,2,3,0,1.0,1876.0,0,rule follower,26,1,1,2,1,1.0,high
3150,124,3,2,1,0,1.0,2116.0,0,prototype,27,1,1,1,1,1.0,high
3151,124,4,2,3,0,0.0,1505.0,1,rule follower,28,1,1,2,1,1.0,high
3152,124,5,2,1,0,0.0,1513.0,1,prototype,29,1,1,1,1,1.0,high
3153,124,6,2,5,1,1.0,1323.0,1,exception,30,2,1,1,2,1.0,high
3154,124,7,2,8,1,0.0,1738.0,0,prototype,31,2,2,2,2,1.0,high
3155,124,8,2,8,1,0.0,1833.0,0,prototype,32,2,2,2,2,1.0,high
3156,124,9,2,1,0,1.0,2043.0,0,prototype,33,1,1,1,1,1.0,high
3157,124,10,2,1,0,0.0,1435.0,1,prototype,34,1,1,1,1,1.0,high
3158,124,11,2,7,1,1.0,1150.0,1,rule follower,35,2,1,2,2,1.0,high
3159,124,12,2,4,1,1.0,1034.0,1,rule follower,36,1,2,2,2,1.0,high
3160,124,13,2,2,0,0.0,705.0,1,rule follower,37,1,2,1,1,1.0,high
3161,124,14,2,8,1,1.0,787.0,1,prototype,38,2,2,2,2,1.0,high
3162,124,15,2,6,0,0.0,667.0,1,exception,39,2,2,1,1,1.0,high
3163,124,16,2,5,1,0.0,760.0,0,exception,40,2,1,1,2,1.0,high
3164,124,17,2,8,1,1.0,942.0,1,prototype,41,2,2,2,2,1.0,high
3165,124,18,2,7,1,1.0,818.0,1,rule follower,42,2,1,2,2,1.0,high
3166,124,19,2,8,1,1.0,675.0,1,prototype,43,2,2,2,2,1.0,high
3167,124,20,2,4,1,1.0,817.0,1,rule follower,44,1,2,2,2,1.0,high
3168,124,21,2,1,0,0.0,625.0,1,prototype,45,1,1,1,1,1.0,high
3169,124,22,2,2,0,0.0,769.0,1,rule follower,46,1,2,1,1,1.0,high
3170,124,23,2,1,0,0.0,614.0,1,prototype,47,1,1,1,1,1.0,high
3171,124,24,2,8,1,1.0,921.0,1,prototype,48,2,2,2,2,1.0,high
3268,125,1,1,1,0,1.0,821.0,0,prototype,1,1,1,1,1,0.5,med
3269,125,2,1,8,1,1.0,929.0,1,prototype,2,2,2,2,2,0.5,med
3270,125,3,1,1,0,1.0,1760.0,0,prototype,3,1,1,1,1,0.5,med
3271,125,4,1,1,0,0.0,1746.0,1,prototype,4,1,1,1,1,0.5,med
3272,125,5,1,5,1,,,0,exception,5,1,2,1,2,0.5,med
3273,125,6,1,6,0,1.0,1730.0,0,exception,6,1,2,2,1,0.5,med
3274,125,7,1,4,1,,,0,rule follower,7,2,1,2,2,0.5,med
3275,125,8,1,8,1,,,0,prototype,8,2,2,2,2,0.5,med
3276,125,9,1,6,0,,,0,exception,9,1,2,2,1,0.5,med
3277,125,10,1,1,0,,,0,prototype,10,1,1,1,1,0.5,med
3278,125,11,1,5,1,0.0,2591.0,0,exception,11,1,2,1,2,0.5,med
3279,125,12,1,1,0,,,0,prototype,12,1,1,1,1,0.5,med
3280,125,13,1,8,1,1.0,2197.0,1,prototype,13,2,2,2,2,0.5,med
3281,125,14,1,2,0,,,0,rule follower,14,1,1,2,1,0.5,med
3282,125,15,1,3,0,,,0,rule follower,15,2,1,1,1,0.5,med
3283,125,16,1,8,1,,,0,prototype,16,2,2,2,2,0.5,med
3284,125,17,1,1,0,,,0,prototype,17,1,1,1,1,0.5,med
3285,125,18,1,7,1,,,0,rule follower,18,2,2,1,2,0.5,med
3286,125,19,1,8,1,,,0,prototype,19,2,2,2,2,0.5,med
3287,125,20,1,4,1,0.0,1295.0,0,rule follower,20,2,1,2,2,0.5,med
3288,125,21,1,7,1,,,0,rule follower,21,2,2,1,2,0.5,med
3289,125,22,1,8,1,,,0,prototype,22,2,2,2,2,0.5,med
3290,125,23,1,3,0,1.0,920.0,0,rule follower,23,2,1,1,1,0.5,med
3291,125,24,1,2,0,,,0,rule follower,24,1,1,2,1,0.5,med
3292,125,1,2,1,0,,,0,prototype,25,1,1,1,1,0.5,med
3293,125,2,2,7,1,,,0,rule follower,26,2,2,1,2,0.5,med
3294,125,3,2,8,1,,,0,prototype,27,2,2,2,2,0.5,med
3295,125,4,2,6,0,,,0,exception,28,1,2,2,1,0.5,med
3296,125,5,2,5,1,,,0,exception,29,1,2,1,2,0.5,med
3297,125,6,2,8,1,,,0,prototype,30,2,2,2,2,0.5,med
3298,125,7,2,4,1,,,0,rule follower,31,2,1,2,2,0.5,med
3299,125,8,2,8,1,,,0,prototype,32,2,2,2,2,0.5,med
3300,125,9,2,7,1,,,0,rule follower,33,2,2,1,2,0.5,med
3301,125,10,2,3,0,1.0,1172.0,0,rule follower,34,2,1,1,1,0.5,med
3302,125,11,2,4,1,,,0,rule follower,35,2,1,2,2,0.5,med
3303,125,12,2,8,1,,,0,prototype,36,2,2,2,2,0.5,med
3304,125,13,2,1,0,,,0,prototype,37,1,1,1,1,0.5,med
3305,125,14,2,1,0,,,0,prototype,38,1,1,1,1,0.5,med
3306,125,15,2,3,0,0.0,1088.0,1,rule follower,39,2,1,1,1,0.5,med
3307,125,16,2,1,0,0.0,1635.0,1,prototype,40,1,1,1,1,0.5,med
3308,125,17,2,2,0,1.0,1111.0,0,rule follower,41,1,1,2,1,0.5,med
3309,125,18,2,1,0,0.0,913.0,1,prototype,42,1,1,1,1,0.5,med
3310,125,19,2,6,0,0.0,936.0,1,exception,43,1,2,2,1,0.5,med
3311,125,20,2,1,0,0.0,1333.0,1,prototype,44,1,1,1,1,0.5,med
3312,125,21,2,8,1,1.0,2147.0,1,prototype,45,2,2,2,2,0.5,med
3313,125,22,2,5,1,0.0,910.0,0,exception,46,1,2,1,2,0.5,med
3314,125,23,2,2,0,1.0,633.0,0,rule follower,47,1,1,2,1,0.5,med
3315,125,24,2,8,1,1.0,733.0,1,prototype,48,2,2,2,2,0.5,med
3412,126,1,1,1,0,1.0,1300.0,0,prototype,1,1,1,1,1,0.5,med
3413,126,2,1,8,1,0.0,1296.0,0,prototype,2,2,2,2,2,0.5,med
3414,126,3,1,1,0,0.0,1674.0,1,prototype,3,1,1,1,1,0.5,med
3415,126,4,1,2,0,0.0,1049.0,1,rule follower,4,1,2,1,1,0.5,med
3416,126,5,1,8,1,1.0,903.0,1,prototype,5,2,2,2,2,0.5,med
3417,126,6,1,1,0,0.0,924.0,1,prototype,6,1,1,1,1,0.5,med
3418,126,7,1,2,0,0.0,813.0,1,rule follower,7,1,2,1,1,0.5,med
3419,126,8,1,3,0,1.0,1005.0,0,rule follower,8,2,1,1,1,0.5,med
3420,126,9,1,8,1,0.0,1442.0,0,prototype,9,2,2,2,2,0.5,med
3421,126,10,1,5,1,0.0,1676.0,0,exception,10,1,1,2,2,0.5,med
3422,126,11,1,1,0,0.0,1392.0,1,prototype,11,1,1,1,1,0.5,med
3423,126,12,1,4,1,1.0,2083.0,1,rule follower,12,2,2,1,2,0.5,med
3424,126,13,1,8,1,1.0,1677.0,1,prototype,13,2,2,2,2,0.5,med
3425,126,14,1,7,1,0.0,1426.0,0,rule follower,14,2,1,2,2,0.5,med
3426,126,15,1,5,1,0.0,1405.0,0,exception,15,1,1,2,2,0.5,med
3427,126,16,1,7,1,1.0,1176.0,1,rule follower,16,2,1,2,2,0.5,med
3428,126,17,1,3,0,1.0,1090.0,0,rule follower,17,2,1,1,1,0.5,med
3429,126,18,1,8,1,1.0,1116.0,1,prototype,18,2,2,2,2,0.5,med
3430,126,19,1,6,0,1.0,1464.0,0,exception,19,1,2,2,1,0.5,med
3431,126,20,1,6,0,0.0,1369.0,1,exception,20,1,2,2,1,0.5,med
3432,126,21,1,8,1,1.0,1661.0,1,prototype,21,2,2,2,2,0.5,med
3433,126,22,1,1,0,1.0,2747.0,0,prototype,22,1,1,1,1,0.5,med
3434,126,23,1,1,0,0.0,2203.0,1,prototype,23,1,1,1,1,0.5,med
3435,126,24,1,4,1,1.0,1892.0,1,rule follower,24,2,2,1,2,0.5,med
3436,126,1,2,1,0,0.0,1190.0,1,prototype,25,1,1,1,1,0.5,med
3437,126,2,2,1,0,0.0,1685.0,1,prototype,26,1,1,1,1,0.5,med
3438,126,3,2,6,0,1.0,1944.0,0,exception,27,1,2,2,1,0.5,med
3439,126,4,2,4,1,1.0,1488.0,1,rule follower,28,2,2,1,2,0.5,med
3440,126,5,2,8,1,1.0,1566.0,1,prototype,29,2,2,2,2,0.5,med
3441,126,6,2,8,1,1.0,1388.0,1,prototype,30,2,2,2,2,0.5,med
3442,126,7,2,7,1,1.0,1319.0,1,rule follower,31,2,1,2,2,0.5,med
3443,126,8,2,8,1,1.0,1521.0,1,prototype,32,2,2,2,2,0.5,med
3444,126,9,2,1,0,0.0,1104.0,1,prototype,33,1,1,1,1,0.5,med
3445,126,10,2,2,0,0.0,989.0,1,rule follower,34,1,2,1,1,0.5,med
3446,126,11,2,8,1,1.0,1140.0,1,prototype,35,2,2,2,2,0.5,med
3447,126,12,2,6,0,0.0,1059.0,1,exception,36,1,2,2,1,0.5,med
3448,126,13,2,4,1,1.0,1491.0,1,rule follower,37,2,2,1,2,0.5,med
3449,126,14,2,1,0,0.0,1099.0,1,prototype,38,1,1,1,1,0.5,med
3450,126,15,2,3,0,1.0,1125.0,0,rule follower,39,2,1,1,1,0.5,med
3451,126,16,2,3,0,1.0,1218.0,0,rule follower,40,2,1,1,1,0.5,med
3452,126,17,2,5,1,0.0,1507.0,0,exception,41,1,1,2,2,0.5,med
3453,126,18,2,1,0,1.0,1590.0,0,prototype,42,1,1,1,1,0.5,med
3454,126,19,2,8,1,1.0,1703.0,1,prototype,43,2,2,2,2,0.5,med
3455,126,20,2,8,1,1.0,1754.0,1,prototype,44,2,2,2,2,0.5,med
3456,126,21,2,7,1,1.0,2294.0,1,rule follower,45,2,1,2,2,0.5,med
3457,126,22,2,1,0,0.0,2159.0,1,prototype,46,1,1,1,1,0.5,med
3458,126,23,2,2,0,0.0,2131.0,1,rule follower,47,1,2,1,1,0.5,med
3459,126,24,2,5,1,0.0,1782.0,0,exception,48,1,1,2,2,0.5,med
3556,127,1,1,4,1,1.0,958.0,1,rule follower,1,2,1,2,2,0.5,med
3557,127,2,1,2,0,1.0,946.0,0,rule follower,2,2,1,1,1,0.5,med
3558,127,3,1,1,0,0.0,1564.0,1,prototype,3,1,1,1,1,0.5,med
3559,127,4,1,1,0,0.0,944.0,1,prototype,4,1,1,1,1,0.5,med
3560,127,5,1,5,1,0.0,1366.0,0,exception,5,1,2,1,2,0.5,med
3561,127,6,1,1,0,1.0,2032.0,0,prototype,6,1,1,1,1,0.5,med
3562,127,7,1,3,0,0.0,2408.0,1,rule follower,7,1,1,2,1,0.5,med
3563,127,8,1,8,1,1.0,2112.0,1,prototype,8,2,2,2,2,0.5,med
3564,127,9,1,6,0,1.0,1231.0,0,exception,9,2,2,1,1,0.5,med
3565,127,10,1,7,1,0.0,1237.0,0,rule follower,10,1,2,2,2,0.5,med
3566,127,11,1,8,1,1.0,2540.0,1,prototype,11,2,2,2,2,0.5,med
3567,127,12,1,3,0,0.0,1302.0,1,rule follower,12,1,1,2,1,0.5,med
3568,127,13,1,1,0,,,0,prototype,13,1,1,1,1,0.5,med
3569,127,14,1,7,1,1.0,716.0,1,rule follower,14,1,2,2,2,0.5,med
3570,127,15,1,8,1,1.0,1324.0,1,prototype,15,2,2,2,2,0.5,med
3571,127,16,1,6,0,0.0,1389.0,1,exception,16,2,2,1,1,0.5,med
3572,127,17,1,8,1,0.0,2218.0,0,prototype,17,2,2,2,2,0.5,med
3573,127,18,1,8,1,0.0,1933.0,0,prototype,18,2,2,2,2,0.5,med
3574,127,19,1,5,1,1.0,1601.0,1,exception,19,1,2,1,2,0.5,med
3575,127,20,1,1,0,1.0,1791.0,0,prototype,20,1,1,1,1,0.5,med
3576,127,21,1,1,0,1.0,1566.0,0,prototype,21,1,1,1,1,0.5,med
3577,127,22,1,8,1,0.0,2328.0,0,prototype,22,2,2,2,2,0.5,med
3578,127,23,1,4,1,0.0,2875.0,0,rule follower,23,2,1,2,2,0.5,med
3579,127,24,1,2,0,0.0,1474.0,1,rule follower,24,2,1,1,1,0.5,med
3580,127,1,2,8,1,0.0,1173.0,0,prototype,25,2,2,2,2,0.5,med
3581,127,2,2,1,0,1.0,1572.0,0,prototype,26,1,1,1,1,0.5,med
3582,127,3,2,6,0,0.0,1701.0,1,exception,27,2,2,1,1,0.5,med
3583,127,4,2,6,0,0.0,1045.0,1,exception,28,2,2,1,1,0.5,med
3584,127,5,2,2,0,0.0,1520.0,1,rule follower,29,2,1,1,1,0.5,med
3585,127,6,2,3,0,1.0,1203.0,0,rule follower,30,1,1,2,1,0.5,med
3586,127,7,2,8,1,0.0,1497.0,0,prototype,31,2,2,2,2,0.5,med
3587,127,8,2,7,1,1.0,1633.0,1,rule follower,32,1,2,2,2,0.5,med
3588,127,9,2,8,1,1.0,2095.0,1,prototype,33,2,2,2,2,0.5,med
3589,127,10,2,7,1,1.0,1757.0,1,rule follower,34,1,2,2,2,0.5,med
3590,127,11,2,8,1,1.0,1202.0,1,prototype,35,2,2,2,2,0.5,med
3591,127,12,2,1,0,0.0,641.0,1,prototype,36,1,1,1,1,0.5,med
3592,127,13,2,1,0,0.0,966.0,1,prototype,37,1,1,1,1,0.5,med
3593,127,14,2,8,1,1.0,801.0,1,prototype,38,2,2,2,2,0.5,med
3594,127,15,2,2,0,0.0,780.0,1,rule follower,39,2,1,1,1,0.5,med
3595,127,16,2,5,1,1.0,743.0,1,exception,40,1,2,1,2,0.5,med
3596,127,17,2,1,0,0.0,1195.0,1,prototype,41,1,1,1,1,0.5,med
3597,127,18,2,4,1,0.0,994.0,0,rule follower,42,2,1,2,2,0.5,med
3598,127,19,2,5,1,1.0,1699.0,1,exception,43,1,2,1,2,0.5,med
3599,127,20,2,3,0,0.0,1562.0,1,rule follower,44,1,1,2,1,0.5,med
3600,127,21,2,4,1,0.0,1230.0,0,rule follower,45,2,1,2,2,0.5,med
3601,127,22,2,1,0,0.0,926.0,1,prototype,46,1,1,1,1,0.5,med
3602,127,23,2,1,0,0.0,1397.0,1,prototype,47,1,1,1,1,0.5,med
3603,127,24,2,8,1,1.0,987.0,1,prototype,48,2,2,2,2,0.5,med
3700,128,1,1,1,0,0.0,886.0,1,prototype,1,1,1,1,1,0.75,high
3701,128,2,1,5,1,1.0,1973.0,1,exception,2,1,1,2,2,0.75,high
3702,128,3,1,1,0,1.0,2482.0,0,prototype,3,1,1,1,1,0.75,high
3703,128,4,1,1,0,0.0,2100.0,1,prototype,4,1,1,1,1,0.75,high
3704,128,5,1,6,0,1.0,2928.0,0,exception,5,2,1,2,1,0.75,high
3705,128,6,1,8,1,1.0,2157.0,1,prototype,6,2,2,2,2,0.75,high
3706,128,7,1,1,0,1.0,1850.0,0,prototype,7,1,1,1,1,0.75,high
3707,128,8,1,8,1,0.0,1844.0,0,prototype,8,2,2,2,2,0.75,high
3708,128,9,1,8,1,1.0,1422.0,1,prototype,9,2,2,2,2,0.75,high
3709,128,10,1,8,1,0.0,2137.0,0,prototype,10,2,2,2,2,0.75,high
3710,128,11,1,2,0,1.0,1671.0,0,rule follower,11,2,1,1,1,0.75,high
3711,128,12,1,2,0,0.0,2126.0,1,rule follower,12,2,1,1,1,0.75,high
3712,128,13,1,3,0,1.0,1679.0,0,rule follower,13,1,2,1,1,0.75,high
3713,128,14,1,1,0,0.0,2327.0,1,prototype,14,1,1,1,1,0.75,high
3714,128,15,1,8,1,0.0,1263.0,0,prototype,15,2,2,2,2,0.75,high
3715,128,16,1,1,0,0.0,2287.0,1,prototype,16,1,1,1,1,0.75,high
3716,128,17,1,6,0,0.0,2704.0,1,exception,17,2,1,2,1,0.75,high
3717,128,18,1,3,0,0.0,1938.0,1,rule follower,18,1,2,1,1,0.75,high
3718,128,19,1,4,1,1.0,1811.0,1,rule follower,19,2,2,1,2,0.75,high
3719,128,20,1,8,1,0.0,2015.0,0,prototype,20,2,2,2,2,0.75,high
3720,128,21,1,5,1,0.0,2028.0,0,exception,21,1,1,2,2,0.75,high
3721,128,22,1,7,1,0.0,2256.0,0,rule follower,22,1,2,2,2,0.75,high
3722,128,23,1,4,1,,,0,rule follower,23,2,2,1,2,0.75,high
3723,128,24,1,7,1,1.0,2034.0,1,rule follower,24,1,2,2,2,0.75,high
3724,128,1,2,7,1,1.0,1111.0,1,rule follower,25,1,2,2,2,0.75,high
3725,128,2,2,7,1,1.0,1967.0,1,rule follower,26,1,2,2,2,0.75,high
3726,128,3,2,8,1,1.0,1440.0,1,prototype,27,2,2,2,2,0.75,high
3727,128,4,2,5,1,1.0,2177.0,1,exception,28,1,1,2,2,0.75,high
3728,128,5,2,8,1,1.0,1616.0,1,prototype,29,2,2,2,2,0.75,high
3729,128,6,2,1,0,1.0,1833.0,0,prototype,30,1,1,1,1,0.75,high
3730,128,7,2,5,1,1.0,1889.0,1,exception,31,1,1,2,2,0.75,high
3731,128,8,2,8,1,1.0,1813.0,1,prototype,32,2,2,2,2,0.75,high
3732,128,9,2,6,0,1.0,1749.0,0,exception,33,2,1,2,1,0.75,high
3733,128,10,2,2,0,1.0,1770.0,0,rule follower,34,2,1,1,1,0.75,high
3734,128,11,2,1,0,1.0,1969.0,0,prototype,35,1,1,1,1,0.75,high
3735,128,12,2,4,1,0.0,1600.0,0,rule follower,36,2,2,1,2,0.75,high
3736,128,13,2,8,1,1.0,2518.0,1,prototype,37,2,2,2,2,0.75,high
3737,128,14,2,8,1,0.0,1346.0,0,prototype,38,2,2,2,2,0.75,high
3738,128,15,2,3,0,0.0,2132.0,1,rule follower,39,1,2,1,1,0.75,high
3739,128,16,2,4,1,0.0,2269.0,0,rule follower,40,2,2,1,2,0.75,high
3740,128,17,2,2,0,0.0,1914.0,1,rule follower,41,2,1,1,1,0.75,high
3741,128,18,2,1,0,1.0,2232.0,0,prototype,42,1,1,1,1,0.75,high
3742,128,19,2,1,0,0.0,1257.0,1,prototype,43,1,1,1,1,0.75,high
3743,128,20,2,1,0,1.0,1407.0,0,prototype,44,1,1,1,1,0.75,high
3744,128,21,2,6,0,0.0,2046.0,1,exception,45,2,1,2,1,0.75,high
3745,128,22,2,1,0,0.0,2354.0,1,prototype,46,1,1,1,1,0.75,high
3746,128,23,2,3,0,1.0,1884.0,0,rule follower,47,1,2,1,1,0.75,high
3747,128,24,2,8,1,0.0,1811.0,0,prototype,48,2,2,2,2,0.75,high
3844,129,1,1,1,0,1.0,1059.0,0,prototype,1,1,1,1,1,0.5,med
3845,129,2,1,1,0,1.0,1439.0,0,prototype,2,1,1,1,1,0.5,med
3846,129,3,1,1,0,0.0,938.0,1,prototype,3,1,1,1,1,0.5,med
3847,129,4,1,8,1,1.0,1176.0,1,prototype,4,2,2,2,2,0.5,med
3848,129,5,1,1,0,0.0,863.0,1,prototype,5,1,1,1,1,0.5,med
3849,129,6,1,7,1,1.0,929.0,1,rule follower,6,2,2,1,2,0.5,med
3850,129,7,1,8,1,1.0,1123.0,1,prototype,7,2,2,2,2,0.5,med
3851,129,8,1,4,1,1.0,785.0,1,rule follower,8,2,1,2,2,0.5,med
3852,129,9,1,2,0,0.0,813.0,1,rule follower,9,1,1,2,1,0.5,med
3853,129,10,1,8,1,1.0,1258.0,1,prototype,10,2,2,2,2,0.5,med
3854,129,11,1,4,1,1.0,850.0,1,rule follower,11,2,1,2,2,0.5,med
3855,129,12,1,7,1,1.0,616.0,1,rule follower,12,2,2,1,2,0.5,med
3856,129,13,1,1,0,0.0,646.0,1,prototype,13,1,1,1,1,0.5,med
3857,129,14,1,3,0,1.0,598.0,0,rule follower,14,2,1,1,1,0.5,med
3858,129,15,1,6,0,1.0,710.0,0,exception,15,1,2,2,1,0.5,med
3859,129,16,1,5,1,0.0,1219.0,0,exception,16,1,2,1,2,0.5,med
3860,129,17,1,1,0,1.0,832.0,0,prototype,17,1,1,1,1,0.5,med
3861,129,18,1,2,0,,,0,rule follower,18,1,1,2,1,0.5,med
3862,129,19,1,8,1,1.0,803.0,1,prototype,19,2,2,2,2,0.5,med
3863,129,20,1,6,0,1.0,1316.0,0,exception,20,1,2,2,1,0.5,med
3864,129,21,1,5,1,0.0,469.0,0,exception,21,1,2,1,2,0.5,med
3865,129,22,1,3,0,1.0,806.0,0,rule follower,22,2,1,1,1,0.5,med
3866,129,23,1,8,1,0.0,1107.0,0,prototype,23,2,2,2,2,0.5,med
3867,129,24,1,8,1,1.0,1836.0,1,prototype,24,2,2,2,2,0.5,med
3868,129,1,2,1,0,0.0,507.0,1,prototype,25,1,1,1,1,0.5,med
3869,129,2,2,7,1,1.0,529.0,1,rule follower,26,2,2,1,2,0.5,med
3870,129,3,2,1,0,0.0,665.0,1,prototype,27,1,1,1,1,0.5,med
3871,129,4,2,5,1,0.0,1556.0,0,exception,28,1,2,1,2,0.5,med
3872,129,5,2,6,0,1.0,829.0,0,exception,29,1,2,2,1,0.5,med
3873,129,6,2,8,1,1.0,829.0,1,prototype,30,2,2,2,2,0.5,med
3874,129,7,2,3,0,0.0,1392.0,1,rule follower,31,2,1,1,1,0.5,med
3875,129,8,2,8,1,1.0,1974.0,1,prototype,32,2,2,2,2,0.5,med
3876,129,9,2,8,1,1.0,1331.0,1,prototype,33,2,2,2,2,0.5,med
3877,129,10,2,5,1,0.0,1073.0,0,exception,34,1,2,1,2,0.5,med
3878,129,11,2,1,0,1.0,1880.0,0,prototype,35,1,1,1,1,0.5,med
3879,129,12,2,3,0,1.0,1289.0,0,rule follower,36,2,1,1,1,0.5,med
3880,129,13,2,4,1,1.0,1203.0,1,rule follower,37,2,1,2,2,0.5,med
3881,129,14,2,1,0,0.0,1257.0,1,prototype,38,1,1,1,1,0.5,med
3882,129,15,2,8,1,1.0,767.0,1,prototype,39,2,2,2,2,0.5,med
3883,129,16,2,8,1,,,0,prototype,40,2,2,2,2,0.5,med
3884,129,17,2,2,0,0.0,1323.0,1,rule follower,41,1,1,2,1,0.5,med
3885,129,18,2,4,1,1.0,831.0,1,rule follower,42,2,1,2,2,0.5,med
3886,129,19,2,1,0,0.0,1845.0,1,prototype,43,1,1,1,1,0.5,med
3887,129,20,2,6,0,1.0,1412.0,0,exception,44,1,2,2,1,0.5,med
3888,129,21,2,1,0,0.0,992.0,1,prototype,45,1,1,1,1,0.5,med
3889,129,22,2,8,1,1.0,761.0,1,prototype,46,2,2,2,2,0.5,med
3890,129,23,2,7,1,1.0,2573.0,1,rule follower,47,2,2,1,2,0.5,med
3891,129,24,2,2,0,,,0,rule follower,48,1,1,2,1,0.5,med
3988,130,1,1,1,0,1.0,1242.0,0,prototype,1,1,1,1,1,0.5,med
3989,130,2,1,1,0,0.0,760.0,1,prototype,2,1,1,1,1,0.5,med
3990,130,3,1,6,0,0.0,1027.0,1,exception,3,2,1,2,1,0.5,med
3991,130,4,1,5,1,0.0,956.0,0,exception,4,2,1,1,2,0.5,med
3992,130,5,1,1,0,0.0,1656.0,1,prototype,5,1,1,1,1,0.5,med
3993,130,6,1,1,0,0.0,1066.0,1,prototype,6,1,1,1,1,0.5,med
3994,130,7,1,3,0,0.0,1017.0,1,rule follower,7,1,2,1,1,0.5,med
3995,130,8,1,2,0,0.0,894.0,1,rule follower,8,1,1,2,1,0.5,med
3996,130,9,1,8,1,1.0,1086.0,1,prototype,9,2,2,2,2,0.5,med
3997,130,10,1,2,0,0.0,759.0,1,rule follower,10,1,1,2,1,0.5,med
3998,130,11,1,7,1,1.0,871.0,1,rule follower,11,2,2,1,2,0.5,med
3999,130,12,1,8,1,1.0,1259.0,1,prototype,12,2,2,2,2,0.5,med
4000,130,13,1,8,1,1.0,1084.0,1,prototype,13,2,2,2,2,0.5,med
4001,130,14,1,3,0,0.0,841.0,1,rule follower,14,1,2,1,1,0.5,med
4002,130,15,1,4,1,0.0,1468.0,0,rule follower,15,1,2,2,2,0.5,med
4003,130,16,1,6,0,1.0,1228.0,0,exception,16,2,1,2,1,0.5,med
4004,130,17,1,8,1,0.0,1140.0,0,prototype,17,2,2,2,2,0.5,med
4005,130,18,1,4,1,0.0,1161.0,0,rule follower,18,1,2,2,2,0.5,med
4006,130,19,1,1,0,1.0,829.0,0,prototype,19,1,1,1,1,0.5,med
4007,130,20,1,8,1,1.0,1386.0,1,prototype,20,2,2,2,2,0.5,med
4008,130,21,1,1,0,1.0,1091.0,0,prototype,21,1,1,1,1,0.5,med
4009,130,22,1,7,1,1.0,2131.0,1,rule follower,22,2,2,1,2,0.5,med
4010,130,23,1,5,1,1.0,1481.0,1,exception,23,2,1,1,2,0.5,med
4011,130,24,1,8,1,1.0,776.0,1,prototype,24,2,2,2,2,0.5,med
4012,130,1,2,8,1,1.0,1183.0,1,prototype,25,2,2,2,2,0.5,med
4013,130,2,2,8,1,1.0,723.0,1,prototype,26,2,2,2,2,0.5,med
4014,130,3,2,7,1,1.0,896.0,1,rule follower,27,2,2,1,2,0.5,med
4015,130,4,2,1,0,0.0,1024.0,1,prototype,28,1,1,1,1,0.5,med
4016,130,5,2,8,1,1.0,650.0,1,prototype,29,2,2,2,2,0.5,med
4017,130,6,2,1,0,0.0,1046.0,1,prototype,30,1,1,1,1,0.5,med
4018,130,7,2,4,1,0.0,1355.0,0,rule follower,31,1,2,2,2,0.5,med
4019,130,8,2,8,1,1.0,1640.0,1,prototype,32,2,2,2,2,0.5,med
4020,130,9,2,6,0,1.0,727.0,0,exception,33,2,1,2,1,0.5,med
4021,130,10,2,1,0,1.0,841.0,0,prototype,34,1,1,1,1,0.5,med
4022,130,11,2,1,0,0.0,1030.0,1,prototype,35,1,1,1,1,0.5,med
4023,130,12,2,1,0,0.0,1170.0,1,prototype,36,1,1,1,1,0.5,med
4024,130,13,2,6,0,1.0,855.0,0,exception,37,2,1,2,1,0.5,med
4025,130,14,2,8,1,0.0,1034.0,0,prototype,38,2,2,2,2,0.5,med
4026,130,15,2,2,0,0.0,1364.0,1,rule follower,39,1,1,2,1,0.5,med
4027,130,16,2,4,1,0.0,1108.0,0,rule follower,40,1,2,2,2,0.5,med
4028,130,17,2,8,1,0.0,1975.0,0,prototype,41,2,2,2,2,0.5,med
4029,130,18,2,7,1,1.0,782.0,1,rule follower,42,2,2,1,2,0.5,med
4030,130,19,2,5,1,1.0,767.0,1,exception,43,2,1,1,2,0.5,med
4031,130,20,2,1,0,0.0,1165.0,1,prototype,44,1,1,1,1,0.5,med
4032,130,21,2,3,0,0.0,763.0,1,rule follower,45,1,2,1,1,0.5,med
4033,130,22,2,5,1,1.0,685.0,1,exception,46,2,1,1,2,0.5,med
4034,130,23,2,2,0,0.0,1194.0,1,rule follower,47,1,1,2,1,0.5,med
4035,130,24,2,3,0,0.0,939.0,1,rule follower,48,1,2,1,1,0.5,med
4060,131,1,1,1,0,,,0,prototype,1,1,1,1,1,0.625,high
4061,131,2,1,4,1,1.0,473.0,1,rule follower,2,2,2,1,2,0.625,high
4062,131,3,1,6,0,1.0,821.0,0,exception,3,1,2,2,1,0.625,high
4063,131,4,1,1,0,1.0,1249.0,0,prototype,4,1,1,1,1,0.625,high
4064,131,5,1,2,0,0.0,1150.0,1,rule follower,5,1,2,1,1,0.625,high
4065,131,6,1,2,0,0.0,1252.0,1,rule follower,6,1,2,1,1,0.625,high
4066,131,7,1,5,1,0.0,1223.0,0,exception,7,1,1,2,2,0.625,high
4067,131,8,1,8,1,0.0,1054.0,0,prototype,8,2,2,2,2,0.625,high
4068,131,9,1,1,0,0.0,1221.0,1,prototype,9,1,1,1,1,0.625,high
4069,131,10,1,8,1,1.0,1128.0,1,prototype,10,2,2,2,2,0.625,high
4070,131,11,1,5,1,0.0,1101.0,0,exception,11,1,1,2,2,0.625,high
4071,131,12,1,1,0,1.0,1605.0,0,prototype,12,1,1,1,1,0.625,high
4072,131,13,1,8,1,1.0,1257.0,1,prototype,13,2,2,2,2,0.625,high
4073,131,14,1,8,1,1.0,968.0,1,prototype,14,2,2,2,2,0.625,high
4074,131,15,1,4,1,1.0,922.0,1,rule follower,15,2,2,1,2,0.625,high
4075,131,16,1,6,0,1.0,1770.0,0,exception,16,1,2,2,1,0.625,high
4076,131,17,1,3,0,1.0,616.0,0,rule follower,17,2,1,1,1,0.625,high
4077,131,18,1,1,0,0.0,1151.0,1,prototype,18,1,1,1,1,0.625,high
4078,131,19,1,3,0,1.0,1749.0,0,rule follower,19,2,1,1,1,0.625,high
4079,131,20,1,8,1,1.0,1251.0,1,prototype,20,2,2,2,2,0.625,high
4080,131,21,1,8,1,1.0,1354.0,1,prototype,21,2,2,2,2,0.625,high
4081,131,22,1,7,1,0.0,993.0,0,rule follower,22,2,1,2,2,0.625,high
4082,131,23,1,1,0,0.0,2250.0,1,prototype,23,1,1,1,1,0.625,high
4083,131,24,1,7,1,0.0,2148.0,0,rule follower,24,2,1,2,2,0.625,high
4084,131,1,2,7,1,1.0,2189.0,1,rule follower,25,2,1,2,2,0.625,high
4085,131,2,2,4,1,1.0,1881.0,1,rule follower,26,2,2,1,2,0.625,high
4086,131,3,2,1,0,0.0,1748.0,1,prototype,27,1,1,1,1,0.625,high
4087,131,4,2,8,1,1.0,1709.0,1,prototype,28,2,2,2,2,0.625,high
4088,131,5,2,2,0,0.0,2167.0,1,rule follower,29,1,2,1,1,0.625,high
4089,131,6,2,2,0,0.0,1259.0,1,rule follower,30,1,2,1,1,0.625,high
4090,131,7,2,7,1,0.0,1312.0,0,rule follower,31,2,1,2,2,0.625,high
4091,131,8,2,8,1,1.0,1350.0,1,prototype,32,2,2,2,2,0.625,high
4092,131,9,2,3,0,1.0,1157.0,0,rule follower,33,2,1,1,1,0.625,high
4093,131,10,2,8,1,1.0,979.0,1,prototype,34,2,2,2,2,0.625,high
4094,131,11,2,6,0,1.0,1887.0,0,exception,35,1,2,2,1,0.625,high
4095,131,12,2,6,0,1.0,1305.0,0,exception,36,1,2,2,1,0.625,high
4096,131,13,2,8,1,1.0,1116.0,1,prototype,37,2,2,2,2,0.625,high
4097,131,14,2,1,0,0.0,1659.0,1,prototype,38,1,1,1,1,0.625,high
4098,131,15,2,1,0,0.0,1851.0,1,prototype,39,1,1,1,1,0.625,high
4099,131,16,2,5,1,0.0,1719.0,0,exception,40,1,1,2,2,0.625,high
4100,131,17,2,1,0,1.0,1041.0,0,prototype,41,1,1,1,1,0.625,high
4101,131,18,2,5,1,0.0,1448.0,0,exception,42,1,1,2,2,0.625,high
4102,131,19,2,1,0,1.0,1835.0,0,prototype,43,1,1,1,1,0.625,high
4103,131,20,2,8,1,1.0,1553.0,1,prototype,44,2,2,2,2,0.625,high
4104,131,21,2,3,0,1.0,1746.0,0,rule follower,45,2,1,1,1,0.625,high
4105,131,22,2,4,1,1.0,845.0,1,rule follower,46,2,2,1,2,0.625,high
4106,131,23,2,8,1,1.0,868.0,1,prototype,47,2,2,2,2,0.625,high
4107,131,24,2,1,0,1.0,1809.0,0,prototype,48,1,1,1,1,0.625,high
4204,133,1,1,3,0,1.0,1557.0,0,rule follower,1,1,2,1,1,0.25,low
4205,133,2,1,1,0,0.0,817.0,1,prototype,2,1,1,1,1,0.25,low
4206,133,3,1,4,1,0.0,1604.0,0,rule follower,3,2,2,1,2,0.25,low
4207,133,4,1,8,1,0.0,1340.0,0,prototype,4,2,2,2,2,0.25,low
4208,133,5,1,1,0,1.0,2294.0,0,prototype,5,1,1,1,1,0.25,low
4209,133,6,1,8,1,0.0,2073.0,0,prototype,6,2,2,2,2,0.25,low
4210,133,7,1,5,1,1.0,1237.0,1,exception,7,1,1,2,2,0.25,low
4211,133,8,1,8,1,0.0,1845.0,0,prototype,8,2,2,2,2,0.25,low
4212,133,9,1,3,0,1.0,2755.0,0,rule follower,9,1,2,1,1,0.25,low
4213,133,10,1,4,1,0.0,1443.0,0,rule follower,10,2,2,1,2,0.25,low
4214,133,11,1,8,1,1.0,1289.0,1,prototype,11,2,2,2,2,0.25,low
4215,133,12,1,6,0,0.0,1438.0,1,exception,12,2,1,2,1,0.25,low
4216,133,13,1,5,1,1.0,2206.0,1,exception,13,1,1,2,2,0.25,low
4217,133,14,1,7,1,,,0,rule follower,14,1,2,2,2,0.25,low
4218,133,15,1,2,0,1.0,999.0,0,rule follower,15,2,1,1,1,0.25,low
4219,133,16,1,8,1,0.0,1490.0,0,prototype,16,2,2,2,2,0.25,low
4220,133,17,1,8,1,1.0,776.0,1,prototype,17,2,2,2,2,0.25,low
4221,133,18,1,1,0,1.0,889.0,0,prototype,18,1,1,1,1,0.25,low
4222,133,19,1,1,0,1.0,596.0,0,prototype,19,1,1,1,1,0.25,low
4223,133,20,1,7,1,0.0,1368.0,0,rule follower,20,1,2,2,2,0.25,low
4224,133,21,1,1,0,1.0,712.0,0,prototype,21,1,1,1,1,0.25,low
4225,133,22,1,2,0,0.0,1661.0,1,rule follower,22,2,1,1,1,0.25,low
4226,133,23,1,1,0,1.0,1408.0,0,prototype,23,1,1,1,1,0.25,low
4227,133,24,1,6,0,0.0,1055.0,1,exception,24,2,1,2,1,0.25,low
4228,133,1,2,8,1,1.0,1529.0,1,prototype,25,2,2,2,2,0.25,low
4229,133,2,2,5,1,0.0,1210.0,0,exception,26,1,1,2,2,0.25,low
4230,133,3,2,2,0,0.0,1269.0,1,rule follower,27,2,1,1,1,0.25,low
4231,133,4,2,4,1,1.0,870.0,1,rule follower,28,2,2,1,2,0.25,low
4232,133,5,2,8,1,0.0,1529.0,0,prototype,29,2,2,2,2,0.25,low
4233,133,6,2,1,0,1.0,552.0,0,prototype,30,1,1,1,1,0.25,low
4234,133,7,2,7,1,0.0,927.0,0,rule follower,31,1,2,2,2,0.25,low
4235,133,8,2,3,0,1.0,2671.0,0,rule follower,32,1,2,1,1,0.25,low
4236,133,9,2,8,1,1.0,806.0,1,prototype,33,2,2,2,2,0.25,low
4237,133,10,2,1,0,1.0,614.0,0,prototype,34,1,1,1,1,0.25,low
4238,133,11,2,6,0,1.0,898.0,0,exception,35,2,1,2,1,0.25,low
4239,133,12,2,1,0,0.0,1072.0,1,prototype,36,1,1,1,1,0.25,low
4240,133,13,2,3,0,0.0,2476.0,1,rule follower,37,1,2,1,1,0.25,low
4241,133,14,2,2,0,1.0,782.0,0,rule follower,38,2,1,1,1,0.25,low
4242,133,15,2,8,1,0.0,1219.0,0,prototype,39,2,2,2,2,0.25,low
4243,133,16,2,4,1,1.0,2385.0,1,rule follower,40,2,2,1,2,0.25,low
4244,133,17,2,8,1,1.0,2142.0,1,prototype,41,2,2,2,2,0.25,low
4245,133,18,2,7,1,0.0,1116.0,0,rule follower,42,1,2,2,2,0.25,low
4246,133,19,2,1,0,1.0,1249.0,0,prototype,43,1,1,1,1,0.25,low
4247,133,20,2,1,0,0.0,597.0,1,prototype,44,1,1,1,1,0.25,low
4248,133,21,2,1,0,0.0,713.0,1,prototype,45,1,1,1,1,0.25,low
4249,133,22,2,8,1,0.0,1195.0,0,prototype,46,2,2,2,2,0.25,low
4250,133,23,2,5,1,0.0,1095.0,0,exception,47,1,1,2,2,0.25,low
4251,133,24,2,6,0,1.0,2902.0,0,exception,48,2,1,2,1,0.25,low
4348,134,1,1,1,0,1.0,1529.0,0,prototype,1,1,1,1,1,0.5,med
4349,134,2,1,8,1,0.0,2157.0,0,prototype,2,2,2,2,2,0.5,med
4350,134,3,1,5,1,0.0,2132.0,0,exception,3,1,2,1,2,0.5,med
4351,134,4,1,8,1,0.0,1374.0,0,prototype,4,2,2,2,2,0.5,med
4352,134,5,1,5,1,0.0,2284.0,0,exception,5,1,2,1,2,0.5,med
4353,134,6,1,8,1,0.0,1622.0,0,prototype,6,2,2,2,2,0.5,med
4354,134,7,1,3,0,1.0,2098.0,0,rule follower,7,1,1,2,1,0.5,med
4355,134,8,1,1,0,0.0,2949.0,1,prototype,8,1,1,1,1,0.5,med
4356,134,9,1,8,1,0.0,2233.0,0,prototype,9,2,2,2,2,0.5,med
4357,134,10,1,4,1,1.0,1791.0,1,rule follower,10,2,1,2,2,0.5,med
4358,134,11,1,6,0,0.0,1827.0,1,exception,11,2,2,1,1,0.5,med
4359,134,12,1,4,1,1.0,1017.0,1,rule follower,12,2,1,2,2,0.5,med
4360,134,13,1,8,1,0.0,1642.0,0,prototype,13,2,2,2,2,0.5,med
4361,134,14,1,1,0,1.0,1327.0,0,prototype,14,1,1,1,1,0.5,med
4362,134,15,1,8,1,,,0,prototype,15,2,2,2,2,0.5,med
4363,134,16,1,3,0,1.0,1751.0,0,rule follower,16,1,1,2,1,0.5,med
4364,134,17,1,2,0,1.0,2450.0,0,rule follower,17,2,1,1,1,0.5,med
4365,134,18,1,7,1,,,0,rule follower,18,1,2,2,2,0.5,med
4366,134,19,1,7,1,,,0,rule follower,19,1,2,2,2,0.5,med
4367,134,20,1,2,0,1.0,1224.0,0,rule follower,20,2,1,1,1,0.5,med
4368,134,21,1,1,0,0.0,1797.0,1,prototype,21,1,1,1,1,0.5,med
4369,134,22,1,1,0,0.0,958.0,1,prototype,22,1,1,1,1,0.5,med
4370,134,23,1,1,0,1.0,1697.0,0,prototype,23,1,1,1,1,0.5,med
4371,134,24,1,6,0,1.0,2540.0,0,exception,24,2,2,1,1,0.5,med
4372,134,1,2,7,1,1.0,2222.0,1,rule follower,25,1,2,2,2,0.5,med
4373,134,2,2,6,0,,,0,exception,26,2,2,1,1,0.5,med
4374,134,3,2,2,0,1.0,1388.0,0,rule follower,27,2,1,1,1,0.5,med
4375,134,4,2,5,1,1.0,1259.0,1,exception,28,1,2,1,2,0.5,med
4376,134,5,2,8,1,1.0,1329.0,1,prototype,29,2,2,2,2,0.5,med
4377,134,6,2,3,0,1.0,1483.0,0,rule follower,30,1,1,2,1,0.5,med
4378,134,7,2,1,0,0.0,1554.0,1,prototype,31,1,1,1,1,0.5,med
4379,134,8,2,1,0,0.0,2437.0,1,prototype,32,1,1,1,1,0.5,med
4380,134,9,2,8,1,0.0,2176.0,0,prototype,33,2,2,2,2,0.5,med
4381,134,10,2,8,1,0.0,1338.0,0,prototype,34,2,2,2,2,0.5,med
4382,134,11,2,4,1,1.0,1681.0,1,rule follower,35,2,1,2,2,0.5,med
4383,134,12,2,3,0,1.0,1520.0,0,rule follower,36,1,1,2,1,0.5,med
4384,134,13,2,6,0,0.0,2359.0,1,exception,37,2,2,1,1,0.5,med
4385,134,14,2,8,1,0.0,2177.0,0,prototype,38,2,2,2,2,0.5,med
4386,134,15,2,8,1,1.0,1870.0,1,prototype,39,2,2,2,2,0.5,med
4387,134,16,2,8,1,1.0,2173.0,1,prototype,40,2,2,2,2,0.5,med
4388,134,17,2,4,1,0.0,1392.0,0,rule follower,41,2,1,2,2,0.5,med
4389,134,18,2,1,0,,,0,prototype,42,1,1,1,1,0.5,med
4390,134,19,2,1,0,0.0,1833.0,1,prototype,43,1,1,1,1,0.5,med
4391,134,20,2,1,0,0.0,1973.0,1,prototype,44,1,1,1,1,0.5,med
4392,134,21,2,1,0,0.0,2160.0,1,prototype,45,1,1,1,1,0.5,med
4393,134,22,2,5,1,,,0,exception,46,1,2,1,2,0.5,med
4394,134,23,2,2,0,1.0,1401.0,0,rule follower,47,2,1,1,1,0.5,med
4395,134,24,2,7,1,1.0,2837.0,1,rule follower,48,1,2,2,2,0.5,med
4492,135,1,1,8,1,1.0,742.0,1,prototype,1,2,2,2,2,0.75,high
4493,135,2,1,5,1,0.0,651.0,0,exception,2,1,1,2,2,0.75,high
4494,135,3,1,7,1,1.0,921.0,1,rule follower,3,1,2,2,2,0.75,high
4495,135,4,1,8,1,0.0,753.0,0,prototype,4,2,2,2,2,0.75,high
4496,135,5,1,1,0,0.0,783.0,1,prototype,5,1,1,1,1,0.75,high
4497,135,6,1,1,0,0.0,678.0,1,prototype,6,1,1,1,1,0.75,high
4498,135,7,1,2,0,1.0,587.0,0,rule follower,7,2,1,1,1,0.75,high
4499,135,8,1,1,0,0.0,1005.0,1,prototype,8,1,1,1,1,0.75,high
4500,135,9,1,7,1,0.0,659.0,0,rule follower,9,1,2,2,2,0.75,high
4501,135,10,1,3,0,1.0,1063.0,0,rule follower,10,1,2,1,1,0.75,high
4502,135,11,1,8,1,1.0,1001.0,1,prototype,11,2,2,2,2,0.75,high
4503,135,12,1,8,1,1.0,815.0,1,prototype,12,2,2,2,2,0.75,high
4504,135,13,1,8,1,1.0,999.0,1,prototype,13,2,2,2,2,0.75,high
4505,135,14,1,5,1,0.0,988.0,0,exception,14,1,1,2,2,0.75,high
4506,135,15,1,6,0,1.0,879.0,0,exception,15,2,1,2,1,0.75,high
4507,135,16,1,2,0,1.0,797.0,0,rule follower,16,2,1,1,1,0.75,high
4508,135,17,1,4,1,1.0,635.0,1,rule follower,17,2,2,1,2,0.75,high
4509,135,18,1,6,0,0.0,1351.0,1,exception,18,2,1,2,1,0.75,high
4510,135,19,1,8,1,0.0,1021.0,0,prototype,19,2,2,2,2,0.75,high
4511,135,20,1,1,0,0.0,871.0,1,prototype,20,1,1,1,1,0.75,high
4512,135,21,1,4,1,1.0,1066.0,1,rule follower,21,2,2,1,2,0.75,high
4513,135,22,1,1,0,0.0,752.0,1,prototype,22,1,1,1,1,0.75,high
4514,135,23,1,1,0,0.0,827.0,1,prototype,23,1,1,1,1,0.75,high
4515,135,24,1,3,0,0.0,878.0,1,rule follower,24,1,2,1,1,0.75,high
4516,135,1,2,5,1,0.0,599.0,0,exception,25,1,1,2,2,0.75,high
4517,135,2,2,5,1,0.0,834.0,0,exception,26,1,1,2,2,0.75,high
4518,135,3,2,7,1,1.0,487.0,1,rule follower,27,1,2,2,2,0.75,high
4519,135,4,2,1,0,0.0,965.0,1,prototype,28,1,1,1,1,0.75,high
4520,135,5,2,8,1,1.0,1039.0,1,prototype,29,2,2,2,2,0.75,high
4521,135,6,2,8,1,1.0,743.0,1,prototype,30,2,2,2,2,0.75,high
4522,135,7,2,2,0,1.0,1136.0,0,rule follower,31,2,1,1,1,0.75,high
4523,135,8,2,6,0,0.0,919.0,1,exception,32,2,1,2,1,0.75,high
4524,135,9,2,3,0,1.0,647.0,0,rule follower,33,1,2,1,1,0.75,high
4525,135,10,2,1,0,1.0,1293.0,0,prototype,34,1,1,1,1,0.75,high
4526,135,11,2,1,0,1.0,996.0,0,prototype,35,1,1,1,1,0.75,high
4527,135,12,2,4,1,1.0,832.0,1,rule follower,36,2,2,1,2,0.75,high
4528,135,13,2,6,0,0.0,1379.0,1,exception,37,2,1,2,1,0.75,high
4529,135,14,2,1,0,0.0,957.0,1,prototype,38,1,1,1,1,0.75,high
4530,135,15,2,8,1,1.0,591.0,1,prototype,39,2,2,2,2,0.75,high
4531,135,16,2,2,0,0.0,905.0,1,rule follower,40,2,1,1,1,0.75,high
4532,135,17,2,1,0,0.0,1107.0,1,prototype,41,1,1,1,1,0.75,high
4533,135,18,2,8,1,1.0,715.0,1,prototype,42,2,2,2,2,0.75,high
4534,135,19,2,7,1,1.0,1277.0,1,rule follower,43,1,2,2,2,0.75,high
4535,135,20,2,1,0,0.0,650.0,1,prototype,44,1,1,1,1,0.75,high
4536,135,21,2,3,0,1.0,646.0,0,rule follower,45,1,2,1,1,0.75,high
4537,135,22,2,4,1,1.0,1131.0,1,rule follower,46,2,2,1,2,0.75,high
4538,135,23,2,8,1,1.0,832.0,1,prototype,47,2,2,2,2,0.75,high
4539,135,24,2,8,1,1.0,642.0,1,prototype,48,2,2,2,2,0.75,high
4636,136,1,1,3,0,1.0,1657.0,0,rule follower,1,2,1,1,1,0.875,high
4637,136,2,1,4,1,0.0,1643.0,0,rule follower,2,2,1,2,2,0.875,high
4638,136,3,1,7,1,0.0,1881.0,0,rule follower,3,2,2,1,2,0.875,high
4639,136,4,1,4,1,1.0,1907.0,1,rule follower,4,2,1,2,2,0.875,high
4640,136,5,1,2,0,0.0,1755.0,1,rule follower,5,1,1,2,1,0.875,high
4641,136,6,1,8,1,1.0,1712.0,1,prototype,6,2,2,2,2,0.875,high
4642,136,7,1,1,0,0.0,689.0,1,prototype,7,1,1,1,1,0.875,high
4643,136,8,1,1,0,0.0,753.0,1,prototype,8,1,1,1,1,0.875,high
4644,136,9,1,6,0,1.0,1180.0,0,exception,9,1,2,2,1,0.875,high
4645,136,10,1,5,1,0.0,736.0,0,exception,10,1,2,1,2,0.875,high
4646,136,11,1,2,0,0.0,1800.0,1,rule follower,11,1,1,2,1,0.875,high
4647,136,12,1,8,1,1.0,2419.0,1,prototype,12,2,2,2,2,0.875,high
4648,136,13,1,8,1,1.0,1353.0,1,prototype,13,2,2,2,2,0.875,high
4649,136,14,1,1,0,,,0,prototype,14,1,1,1,1,0.875,high
4650,136,15,1,8,1,1.0,568.0,1,prototype,15,2,2,2,2,0.875,high
4651,136,16,1,1,0,0.0,591.0,1,prototype,16,1,1,1,1,0.875,high
4652,136,17,1,1,0,0.0,511.0,1,prototype,17,1,1,1,1,0.875,high
4653,136,18,1,7,1,1.0,762.0,1,rule follower,18,2,2,1,2,0.875,high
4654,136,19,1,8,1,1.0,580.0,1,prototype,19,2,2,2,2,0.875,high
4655,136,20,1,3,0,1.0,612.0,0,rule follower,20,2,1,1,1,0.875,high
4656,136,21,1,5,1,1.0,1390.0,1,exception,21,1,2,1,2,0.875,high
4657,136,22,1,8,1,1.0,1649.0,1,prototype,22,2,2,2,2,0.875,high
4658,136,23,1,1,0,0.0,1087.0,1,prototype,23,1,1,1,1,0.875,high
4659,136,24,1,6,0,1.0,931.0,0,exception,24,1,2,2,1,0.875,high
4660,136,1,2,8,1,0.0,1929.0,0,prototype,25,2,2,2,2,0.875,high
4661,136,2,2,8,1,1.0,1100.0,1,prototype,26,2,2,2,2,0.875,high
4662,136,3,2,4,1,1.0,1404.0,1,rule follower,27,2,1,2,2,0.875,high
4663,136,4,2,1,0,0.0,507.0,1,prototype,28,1,1,1,1,0.875,high
4664,136,5,2,1,0,0.0,568.0,1,prototype,29,1,1,1,1,0.875,high
4665,136,6,2,3,0,0.0,686.0,1,rule follower,30,2,1,1,1,0.875,high
4666,136,7,2,3,0,0.0,534.0,1,rule follower,31,2,1,1,1,0.875,high
4667,136,8,2,1,0,0.0,572.0,1,prototype,32,1,1,1,1,0.875,high
4668,136,9,2,8,1,1.0,828.0,1,prototype,33,2,2,2,2,0.875,high
4669,136,10,2,6,0,1.0,778.0,0,exception,34,1,2,2,1,0.875,high
4670,136,11,2,1,0,0.0,663.0,1,prototype,35,1,1,1,1,0.875,high
4671,136,12,2,4,1,1.0,1172.0,1,rule follower,36,2,1,2,2,0.875,high
4672,136,13,2,8,1,1.0,1409.0,1,prototype,37,2,2,2,2,0.875,high
4673,136,14,2,7,1,0.0,787.0,0,rule follower,38,2,2,1,2,0.875,high
4674,136,15,2,8,1,1.0,747.0,1,prototype,39,2,2,2,2,0.875,high
4675,136,16,2,1,0,0.0,926.0,1,prototype,40,1,1,1,1,0.875,high
4676,136,17,2,1,0,0.0,738.0,1,prototype,41,1,1,1,1,0.875,high
4677,136,18,2,2,0,1.0,1176.0,0,rule follower,42,1,1,2,1,0.875,high
4678,136,19,2,5,1,0.0,1721.0,0,exception,43,1,2,1,2,0.875,high
4679,136,20,2,5,1,1.0,821.0,1,exception,44,1,2,1,2,0.875,high
4680,136,21,2,6,0,1.0,1220.0,0,exception,45,1,2,2,1,0.875,high
4681,136,22,2,8,1,0.0,855.0,0,prototype,46,2,2,2,2,0.875,high
4682,136,23,2,2,0,1.0,1236.0,0,rule follower,47,1,1,2,1,0.875,high
4683,136,24,2,7,1,0.0,2160.0,0,rule follower,48,2,2,1,2,0.875,high
4780,137,1,1,2,0,,,0,rule follower,1,2,1,1,1,0.5,med
4781,137,2,1,1,0,0.0,1468.0,1,prototype,2,1,1,1,1,0.5,med
4782,137,3,1,5,1,0.0,1694.0,0,exception,3,1,2,1,2,0.5,med
4783,137,4,1,1,0,0.0,2223.0,1,prototype,4,1,1,1,1,0.5,med
4784,137,5,1,5,1,1.0,1180.0,1,exception,5,1,2,1,2,0.5,med
4785,137,6,1,8,1,0.0,925.0,0,prototype,6,2,2,2,2,0.5,med
4786,137,7,1,1,0,0.0,1072.0,1,prototype,7,1,1,1,1,0.5,med
4787,137,8,1,4,1,0.0,1539.0,0,rule follower,8,2,1,2,2,0.5,med
4788,137,9,1,7,1,1.0,1187.0,1,rule follower,9,1,2,2,2,0.5,med
4789,137,10,1,4,1,0.0,1172.0,0,rule follower,10,2,1,2,2,0.5,med
4790,137,11,1,6,0,1.0,918.0,0,exception,11,2,2,1,1,0.5,med
4791,137,12,1,1,0,0.0,886.0,1,prototype,12,1,1,1,1,0.5,med
4792,137,13,1,1,0,0.0,1192.0,1,prototype,13,1,1,1,1,0.5,med
4793,137,14,1,8,1,1.0,594.0,1,prototype,14,2,2,2,2,0.5,med
4794,137,15,1,1,0,0.0,718.0,1,prototype,15,1,1,1,1,0.5,med
4795,137,16,1,8,1,1.0,705.0,1,prototype,16,2,2,2,2,0.5,med
4796,137,17,1,6,0,1.0,696.0,0,exception,17,2,2,1,1,0.5,med
4797,137,18,1,2,0,1.0,495.0,0,rule follower,18,2,1,1,1,0.5,med
4798,137,19,1,8,1,1.0,550.0,1,prototype,19,2,2,2,2,0.5,med
4799,137,20,1,3,0,0.0,742.0,1,rule follower,20,1,1,2,1,0.5,med
4800,137,21,1,3,0,0.0,828.0,1,rule follower,21,1,1,2,1,0.5,med
4801,137,22,1,7,1,0.0,638.0,0,rule follower,22,1,2,2,2,0.5,med
4802,137,23,1,8,1,1.0,525.0,1,prototype,23,2,2,2,2,0.5,med
4803,137,24,1,8,1,1.0,837.0,1,prototype,24,2,2,2,2,0.5,med
4804,137,1,2,8,1,1.0,751.0,1,prototype,25,2,2,2,2,0.5,med
4805,137,2,2,6,0,1.0,555.0,0,exception,26,2,2,1,1,0.5,med
4806,137,3,2,1,0,0.0,645.0,1,prototype,27,1,1,1,1,0.5,med
4807,137,4,2,8,1,1.0,500.0,1,prototype,28,2,2,2,2,0.5,med
4808,137,5,2,7,1,0.0,721.0,0,rule follower,29,1,2,2,2,0.5,med
4809,137,6,2,3,0,0.0,588.0,1,rule follower,30,1,1,2,1,0.5,med
4810,137,7,2,1,0,1.0,2143.0,0,prototype,31,1,1,1,1,0.5,med
4811,137,8,2,1,0,1.0,1339.0,0,prototype,32,1,1,1,1,0.5,med
4812,137,9,2,7,1,0.0,637.0,0,rule follower,33,1,2,2,2,0.5,med
4813,137,10,2,5,1,1.0,1149.0,1,exception,34,1,2,1,2,0.5,med
4814,137,11,2,3,0,1.0,746.0,0,rule follower,35,1,1,2,1,0.5,med
4815,137,12,2,8,1,1.0,726.0,1,prototype,36,2,2,2,2,0.5,med
4816,137,13,2,8,1,1.0,594.0,1,prototype,37,2,2,2,2,0.5,med
4817,137,14,2,8,1,1.0,517.0,1,prototype,38,2,2,2,2,0.5,med
4818,137,15,2,2,0,1.0,494.0,0,rule follower,39,2,1,1,1,0.5,med
4819,137,16,2,4,1,1.0,637.0,1,rule follower,40,2,1,2,2,0.5,med
4820,137,17,2,2,0,1.0,514.0,0,rule follower,41,2,1,1,1,0.5,med
4821,137,18,2,8,1,1.0,459.0,1,prototype,42,2,2,2,2,0.5,med
4822,137,19,2,4,1,1.0,567.0,1,rule follower,43,2,1,2,2,0.5,med
4823,137,20,2,1,0,0.0,682.0,1,prototype,44,1,1,1,1,0.5,med
4824,137,21,2,1,0,0.0,614.0,1,prototype,45,1,1,1,1,0.5,med
4825,137,22,2,6,0,1.0,456.0,0,exception,46,2,2,1,1,0.5,med
